time,seconds_elapsed,z,y,x
1726398285152701200,0.038701171875,-0.5387216770201921,-0.10403495949208735,-0.09720577105917036
1726398285162750000,0.04875,-0.31263679339587686,0.07521086993739008,-0.07572218046039342
1726398285172798200,0.058798095703125,0.08205226026475429,0.16890987498462198,-0.007116554006934166
1726398285182847000,0.068846923828125,0.3291092047691345,0.1209428396731615,0.10236424980089068
1726398285192895200,0.078895263671875,0.3203723560839891,0.05798822471871972,0.18859401494599878
1726398285202944000,0.088944091796875,0.10904431208670139,0.09217764069885015,0.20799305435568094
1726398285212992300,0.0989921875,-0.14339315641224384,0.17894056287258864,0.12467128561176359
1726398285223041000,0.109041015625,-0.34895313840210435,0.22628142910972238,0.03873173558488488
1726398285233089300,0.11908935546875,-0.4653068967193365,0.2709361250028014,-0.010550547043606638
1726398285243138000,0.129137939453125,-0.40618192305564876,0.33890316129177805,-0.0608477788683027
1726398285253186300,0.139186279296875,-0.2956973490327596,0.35179990613535045,-0.05708499226868152
1726398285263235000,0.149235107421875,-0.47066754696965213,0.3182511261463165,0.09357062942720949
1726398285273283000,0.159282958984375,-0.7641290997743606,0.7792246698364615,0.375817837517336
1726398285283332000,0.16933203125,-0.6099187812715768,1.2904321708567439,0.3561702667066827
1726398285293380000,0.179380126953125,-0.3666010232955217,1.0421266875959931,0.2231991355875507
1726398285303429000,0.18942919921875,-0.29505379043221475,0.3858841081753373,0.3851258736865595
1726398285313477000,0.19947705078125,-0.059894204470515244,-0.14478446464017034,0.5813119146641343
1726398285323526100,0.209526123046875,0.6049748951286077,-0.40933293443247676,0.3022697131603956
1726398285333574100,0.21957421875,1.1324889494359494,-0.6366884225144982,-0.023122370781749484
1726398285343623200,0.229623046875,0.9534072245270013,-0.7595012938432395,0.035957302435487504
1726398285353672000,0.239671875,0.4534755891501903,-0.5062964942336082,0.09849339971691369
1726398285363720200,0.24972021484375,0.2935878095328808,-0.06579919073060154,-0.015901041226089
1726398285373769000,0.25976904296875,0.21565233693718908,0.24412848983705043,-0.19698563039004802
1726398285383817200,0.269817138671875,-0.11956745966672896,0.32262714927345515,-0.3947824310325086
1726398285393866000,0.279865966796875,-0.6716179893374443,0.1432891115158796,-0.6536728750631213
1726398285403914200,0.289914306640625,-1.0206389322787524,-0.1989879101231694,-0.7954832923285663
1726398285413963000,0.299962890625,-0.967044704735279,-0.5160543565295637,-0.8116557709071784
1726398285424011300,0.31001123046875,-0.4080225824862718,-0.6495514112189412,-0.636188948559761
1726398285434060000,0.32006005859375,0.38624972661733625,-0.5478324735842645,-0.33105858527123927
1726398285444108000,0.33010791015625,1.1802239295572041,-0.33533830841705203,-0.07141447332911192
1726398285454157000,0.340156982421875,1.5751479610174894,-0.19865195616707204,0.08820548566486686
1726398285464205000,0.350205078125,1.3658318413645028,-0.1880054744683206,0.2127083924397826
1726398285474254000,0.360254150390625,0.788310185828805,-0.22532222868874668,0.3565045766949653
1726398285484302000,0.370302001953125,0.3279904298722744,-0.19878771137595175,0.2676942935373634
1726398285494351000,0.38035107421875,0.15538345393538475,-0.11108224765509367,-0.003077580814436078
1726398285504399000,0.390399169921875,-0.04208966771066189,-0.09489975913912058,-0.17872103837039321
1726398285514448100,0.4004482421875,-0.1705991432458162,-0.07755947889015079,-0.17826416144836693
1726398285524497200,0.4104970703125,-0.1788870791196823,-0.0004933364748954773,-0.13220091393161565
1726398285534545200,0.420545166015625,-0.22391221576035023,0.041925563190132374,-0.1730374397760257
1726398285544594200,0.43059423828125,-0.2989496288269758,0.04591697091385722,-0.07845982526335865
1726398285554642200,0.44064208984375,-0.37810733669400215,0.022106471737474202,0.037958924581483006
1726398285564691000,0.45069091796875,-0.3906798180192709,-0.10537380688041448,0.025540574372000992
1726398285574739200,0.4607392578125,-0.3544137418955564,-0.24866437970101832,-0.045957668250426645
1726398285584788000,0.4707880859375,-0.23143910413384436,-0.3379837083593011,-0.07247428458034992
1726398285594836200,0.480836181640625,0.013708791878819465,-0.37376258548796176,-0.10181651625763624
1726398285604885000,0.490885009765625,0.11823533428013323,-0.3063686729118228,-0.225674110866338
1726398285614933000,0.50093310546875,0.018185645031929015,-0.1801825257577002,-0.22890954912360756
1726398285624982000,0.51098193359375,-0.11976327449977398,-0.047775312131643294,-0.07803568156715482
1726398285635030000,0.521030029296875,-0.18802900147438048,0.057946139142662285,0.04566314228326082
1726398285645079000,0.5310791015625,-0.09532382977008819,0.1206957330442965,0.1309314054524526
1726398285655127000,0.541126953125,-0.009602525603771209,0.11001754103302955,0.11445285659935325
1726398285665176000,0.551176025390625,-0.006943535527586937,0.0827240220464766,0.05576400933060795
1726398285675224000,0.56122412109375,-0.006483516800403595,0.125315355668962,0.03439030884709209
1726398285685273000,0.571273193359375,-0.09627250879704952,0.21248130568563936,0.019953641085140406
1726398285695322000,0.581322021484375,-0.19190496612489222,0.2413179624609649,0.0793742366945371
1726398285705370000,0.5913701171875,-0.10557809728085994,0.22667364329770207,0.12259433320723473
1726398285715419100,0.601419189453125,-0.04053133235275745,0.18926964918524025,0.11736034154389052
1726398285725467100,0.611467041015625,0.006111176356673241,0.10804200317636131,0.14409586132150143
1726398285735516200,0.62151611328125,0.08290273961424827,-0.08974486059397459,0.12538206422962248
1726398285745564200,0.631564208984375,0.012155132696032524,-0.18075608786195516,-0.07564626567997038
1726398285755613200,0.64161328125,-0.297017199459672,-0.15446137065440416,-0.17252802894916383
1726398285765661000,0.651660888671875,-0.4951876557201147,-0.15213482740297912,-0.188895262914896
1726398285775710200,0.661710205078125,-0.45338674182295796,-0.13737155803516507,-0.22820183924566953
1726398285785758000,0.671758056640625,-0.17213059059679509,-0.2313731992907822,-0.1821120325155556
1726398285795807200,0.68180712890625,0.2010691003113985,-0.2470743340305984,-0.08770794793888927
1726398285805855000,0.69185498046875,0.6351046604543924,-0.1264616030946374,0.12683949649631976
1726398285815904300,0.701904296875,1.0403408270925283,0.09840659821629523,0.4189981500089168
1726398285825952000,0.711951904296875,1.034599068570137,0.2662881530664861,0.5541698599122464
1726398285836001300,0.722001220703125,0.4982558111190796,0.33045448189824816,0.5334066925425082
1726398285846049000,0.732049072265625,0.0056026423126459115,0.32992490506619215,0.43430509779937565
1726398285856098000,0.74209814453125,-0.006341477981209755,0.31519612248986956,0.3990397231508046
1726398285866147000,0.75214697265625,0.18201427122950553,0.35501799139901996,0.3589933978360146
1726398285876195000,0.762195068359375,0.27029461222887036,0.36907092054039237,0.31219905956573785
1726398285886244000,0.772244140625,0.49131870533227917,0.2604281749919057,0.31672837355844674
1726398285896292000,0.7822919921875,0.7413654793024063,0.18823285348340868,0.3945397083178162
1726398285906341400,0.79234130859375,0.9729407770365476,0.14695654798224567,0.49109307988286016
1726398285916389000,0.80238916015625,1.0720049623787402,0.045774493703246114,0.5294055671423673
1726398285926438400,0.8124384765625,1.1307377218544483,-0.11902458496168256,0.524358366755396
1726398285936486100,0.822486083984375,1.1013204887121915,-0.18962854562550782,0.5213542165033519
1726398285946535400,0.832535400390625,0.9618751931428908,-0.1548464244492352,0.5480589758165181
1726398285956583200,0.842583251953125,0.7970002727627754,-0.08656082373037934,0.5177274043083191
1726398285966632400,0.852632568359375,0.39727965467572207,0.056826633593440055,0.4931741239406168
1726398285976680200,0.86268017578125,-0.1731318765938282,-0.10835486851781606,0.34424978301674125
1726398285986729500,0.8727294921875,-0.41915538639724254,-0.11915770982205867,0.21583646133244036
1726398285996777200,0.882777099609375,-0.4017068234682083,0.2609691500008106,0.5178030998930335
1726398286006826500,0.892826416015625,-0.32132980293929575,0.39267537575066086,0.6195331434436142
1726398286016875300,0.902875244140625,-0.1305629009336233,0.43341392111331223,0.6496124937564134
1726398286026923300,0.91292333984375,-0.033793548530340195,0.3966802274778485,0.9570698386877775
1726398286036972300,0.92297216796875,-0.14734920056164263,0.2233309087410569,0.8267347551606595
1726398286047020300,0.933020263671875,-0.2911234652459621,-0.03785129948854446,0.3175846250616014
1726398286057069300,0.9430693359375,-0.10157470685839652,-0.05037263514846563,-0.033190321940183634
1726398286067117300,0.953117431640625,0.012552023059129714,0.06574439180344342,-0.01595861663222313
1726398286077166300,0.963166259765625,-0.3142477357238531,-0.06142740538716316,0.0017214169651269913
1726398286087214300,0.97321435546875,-0.4014747682780027,-0.1314715402111411,-0.19259250999763608
1726398286097263400,0.983263427734375,-0.11416998453736305,-0.1727998681604862,-0.359309258852154
1726398286107311400,0.993311279296875,0.14605916075110434,-0.4343681530982256,-0.1971678550891578
1726398286117360400,1.0033603515625,0.3663923489809036,-0.5214917252779007,0.0676196110907942
1726398286127408400,1.013408447265625,0.5754658920496701,-0.46129123133718963,0.06854695506878197
1726398286137457400,1.02345751953125,0.709957364603877,-0.43415626391321416,-0.062336519588716326
1726398286147505400,1.03350537109375,0.8662836523473262,-0.4036678944081068,-0.20189294738229363
1726398286157554400,1.043554443359375,0.9770645789682865,-0.17941197977662085,-0.037242465141508724
1726398286167602200,1.053602294921875,0.8669412394732237,0.14506459675580263,0.33607436760663983
1726398286177651200,1.063651123046875,0.5509165572047233,0.23038871829807758,0.2978797163068317
1726398286187700200,1.0737001953125,0.3293319076091051,-0.0960989057958126,-0.09575780074056238
1726398286197748200,1.083748291015625,0.36875031028389926,-0.536194788891077,-0.5465977076249197
1726398286207797200,1.09379736328125,0.5659294174194336,-0.7621329575210809,-0.8808177891343831
1726398286217845200,1.10384521484375,0.6881529445528983,-0.7685545150011778,-0.9741444537378847
1726398286227894300,1.113894287109375,0.4542863210111856,-0.7035971819221973,-0.7672292577467859
1726398286237942300,1.1239423828125,0.28138766865134235,-0.6465992834150791,-0.7111496431283653
1726398286247991300,1.1339912109375,0.2406570143342018,-0.6672919428318739,-0.7132983455948532
1726398286258039300,1.144039306640625,0.27294132734537124,-0.7281494393765926,-0.6335670756235718
1726398286268088300,1.15408837890625,0.47364393243193625,-0.6546335367888212,-0.23169205598160622
1726398286278136300,1.16413623046875,0.7220470308482646,-0.39316345152854915,0.12659224373698233
1726398286288185300,1.174185302734375,0.6503712031692266,-0.3439572298109531,0.08158464275300502
1726398286298233300,1.1842333984375,0.3692348789304495,-0.35121523811519145,0.010737228722125292
1726398286308282400,1.194282470703125,0.05844809731543064,-0.16062193911075592,-0.13448840381428598
1726398286318330400,1.204330322265625,-0.19939678318500517,0.06781973677277564,-0.34947745453715323
1726398286328379400,1.21437939453125,-0.25336101308465003,0.18036767306625842,-0.5532827018141746
1726398286338428200,1.22442822265625,-0.29211715245842934,0.12335983768701553,-0.7976610747590661
1726398286348476200,1.23447607421875,-0.5366092149108648,-0.09778232883810996,-1.0485019217163323
1726398286358525200,1.244525146484375,-0.6686258217841387,-0.34463469068109986,-1.219680618415773
1726398286368573200,1.2545732421875,-0.6280091492354869,-0.45252340299189087,-1.1868036002084612
1726398286378622200,1.264622314453125,-0.4601432303458452,-0.3702653910219669,-0.8015130740121007
1726398286388670200,1.274670166015625,-0.267848388120532,-0.20400749185085296,-0.28258710756897926
1726398286398719200,1.28471923828125,-0.12598960166871548,-0.272074481382966,-0.011256138029694556
1726398286408767200,1.294767333984375,0.1965373021006584,-0.3523994794636965,0.1395996093481779
1726398286418816300,1.304816162109375,0.6120122464194894,-0.16420505829453466,0.1661050466969609
1726398286428864300,1.3148642578125,1.0277017102718353,0.0677870035469532,0.07124795765578747
1726398286438913300,1.324913330078125,0.988868998530507,0.06889058087468147,-0.13444704889059067
1726398286448961300,1.334961181640625,0.5408876228824258,-0.05282791934609413,-0.2820142761170864
1726398286459010300,1.34501025390625,-0.134662737467885,-0.16135434503853321,-0.3139771020889282
1726398286469058300,1.355058349609375,-0.7038584632068872,-0.12172376091778278,-0.2618289817005396
1726398286479107300,1.365107421875,-0.8930486174151301,-0.07103752977550029,-0.12137012517452239
1726398286489155300,1.3751552734375,-0.8022486948102712,0.019781974312663077,0.13540741835534573
1726398286499204400,1.385204345703125,-0.5029910229474306,0.1378442901134491,0.34993455065488815
1726398286509253400,1.39525341796875,-0.09595628245472908,0.1470148540407419,0.39552667352855203
1726398286519301000,1.405301025390625,0.21093115363419054,0.003804652979969978,0.3989928883343935
1726398286529350400,1.415350341796875,0.29862872630953785,-0.045454760229587554,0.5219803855776787
1726398286539398100,1.425398193359375,0.27883623060286045,-0.043509471380710596,0.6533756456822156
1726398286549447400,1.435447509765625,0.3356596493259072,0.013597148197889328,0.7159218259662389
1726398286559495200,1.4454951171875,0.4849082537680864,0.1169604920387268,0.7440045956343412
1726398286569544200,1.455544189453125,0.6383914270401001,0.21769348737597463,0.8377665829151868
1726398286579592200,1.46559228515625,0.6635363896906376,0.28511458021998404,0.7933031718105077
1726398286589641200,1.47564111328125,0.7104572769500315,0.2604097625523805,0.5019593418121338
1726398286599689200,1.485689208984375,0.5256054442070425,0.180952194955945,0.3308487419128418
1726398286609738200,1.49573828125,0.22885683255568146,0.0078068743586540215,0.30275603537261486
1726398286619786200,1.5057861328125,-0.09139759623706341,-0.1250245560288429,0.17316694790720938
1726398286629835300,1.515835205078125,-0.3004758154809475,-0.14556699331998824,-0.005126256972551346
1726398286639884300,1.52588427734375,-0.35554844501391053,-0.19078034600913524,-0.10675123271346092
1726398286649932300,1.535932373046875,-0.3664771777201444,-0.15659458329081535,-0.1755500436514616
1726398286659981300,1.545981201171875,-0.37282738699708134,0.022048165678977966,-0.20707623177170753
1726398286670029300,1.556029296875,-0.3311199600696563,0.06156359898746013,-0.23342121786177156
1726398286680078300,1.566078369140625,-0.3221165694028139,-0.07119301259815693,-0.18035306001901624
1726398286690126000,1.5761259765625,-0.23889409631490707,-0.1531248613536358,-0.14756138200759886
1726398286700175400,1.58617529296875,0.015003498731320723,-0.13924422003924847,-0.1229950960278511
1726398286710223000,1.59622314453125,0.3214905464589596,-0.0716600455880165,-0.022333996883034706
1726398286720272400,1.6062724609375,0.5422154008874669,-0.012185527834296226,0.001844166561961174
1726398286730320100,1.616320068359375,0.5665969779500738,-0.03255903829932213,-0.03483633558154106
1726398286740369400,1.626369384765625,0.46539632856845853,-0.07850830404758453,0.026657120779156683
1726398286750417200,1.636417236328125,0.2916121255457401,0.10056173042356967,-0.16690438038110733
1726398286760466400,1.646466552734375,0.17697912660650908,0.20876959168612955,-0.3906780644536018
1726398286770514200,1.65651416015625,-0.14512290281429885,-0.058574938565492625,-0.3165507519692182
1726398286780563500,1.6665634765625,-0.351133989572525,-0.2805494642615318,-0.2819084776550531
1726398286790612200,1.6766123046875,-0.2522842506986111,-0.3025391777515411,-0.35468379100859165
1726398286800660500,1.686660400390625,-0.03910349150672555,-0.18818623786270616,-0.3532692480355501
1726398286810709200,1.696709228515625,0.14250877479314802,0.005941665008664131,-0.2583557526320219
1726398286820757500,1.706757568359375,0.14489932319149373,0.03804010005891323,-0.02175122855901718
1726398286830806300,1.71680615234375,0.04852832245603204,-0.02774783862531185,0.232631528788805
1726398286840854300,1.726854248046875,0.032656068933010096,-0.05156652110815048,0.2820610378682613
1726398286850903300,1.7369033203125,0.0902047331906855,-0.0710503892570734,0.2968547023743391
1726398286860951300,1.746951416015625,0.23964199207276105,-0.17856325399279593,0.3533224395275116
1726398286871000300,1.757000244140625,0.2982267213799059,-0.17159107689261435,0.2664852830737829
1726398286881048300,1.76704833984375,0.3020785745024681,-0.037059856849908826,0.2162356897830963
1726398286891097300,1.777097412109375,0.32886575140208,0.03362053005099296,0.13375263688564298
1726398286901145300,1.787145263671875,0.1792524053007364,-0.028669045123457908,0.0836024123162031
1726398286911194000,1.797194091796875,-0.120184714782238,-0.10933423494398593,0.14322598315179347
1726398286921243100,1.8072431640625,-0.36596330991387366,-0.2214724213927984,0.1960807905048132
1726398286931291100,1.817291015625,-0.44604777723699807,-0.3909790932267904,0.27294015830159185
1726398286941340200,1.827340087890625,-0.3389844098344445,-0.4010486518204212,0.35794717671871185
1726398286951388200,1.83738818359375,-0.3734066116571426,-0.3991887031674385,0.3748100487142801
1726398286961437200,1.847437255859375,-0.5093590966746211,-0.350997795972228,0.2787298476189375
1726398286971485200,1.857485107421875,-0.7640022585242986,-0.23130524862110613,0.05719195977449417
1726398286981534000,1.867533935546875,-1.1487532710164785,-0.28731530513465403,-0.07520984702408313
1726398286991582200,1.877582275390625,-1.3908295044988392,-0.3692243575364351,0.008057634249329567
1726398287001631000,1.887630859375,-1.3793889498129486,-0.363185661894083,0.23644553411900995
1726398287011679200,1.89767919921875,-1.2409312039762734,-0.3674766370862722,0.4694944115370512
1726398287021728000,1.90772802734375,-0.9426046754837035,-0.38113106842935085,0.5533797324478625
1726398287031776300,1.9177763671875,-0.6966326036065816,-0.47983518828749655,0.4625006071269512
1726398287041825000,1.927824951171875,-0.678311934018135,-0.5488379973649978,0.38720132825374604
1726398287051874000,1.9378740234375,-0.8221645246356725,-0.4108727112203836,0.38980946492552754
1726398287061922000,1.947922119140625,-0.9888158070385455,-0.4223503830462694,0.359811801546812
1726398287071971000,1.95797119140625,-0.9206707838341593,-0.5251075776875018,0.23798458025455474
1726398287082019000,1.96801904296875,-0.7212412674233317,-0.636502252292633,0.15709142689704894
1726398287092068000,1.978068115234375,-0.38458734636306763,-0.7425047124654054,0.11864274603724478
1726398287102116000,1.9881162109375,0.07778612725287676,-0.7159212414443492,0.14507833302021025
1726398287112165000,1.9981650390625,0.4478595028340816,-0.6915607071697711,0.21329788276553152
1726398287122213000,2.008213134765625,0.38500411047041416,-0.5775520506739616,0.09808861830830573
1726398287132262100,2.01826220703125,0.08885083436369895,-0.42972529572844503,-0.18984978716075418
1726398287142310100,2.02831005859375,-0.26662995224148034,-0.3726011404931545,-0.5245213022321462
1726398287152359000,2.03835888671875,-0.6628142128959298,-0.4473170665204525,-0.7801455840736627
1726398287162407200,2.0484072265625,-0.9257378579653799,-0.3893096987098455,-0.9079811058700085
1726398287172456000,2.0584560546875,-0.8645512755967676,-0.2100871040254831,-0.8062310424447059
1726398287182505200,2.068505126953125,-0.6200443078361452,-0.1182587151557207,-0.351495808622241
1726398287192553000,2.078552978515625,-0.32751338694505394,-0.011966916647553442,0.06615969460606574
1726398287202602200,2.088602294921875,-0.3440402319192886,-0.007893383598327636,0.16359774005115033
1726398287212650000,2.09864990234375,-0.6877531315803528,-0.13116320491433142,-0.09511573997735977
1726398287222699300,2.10869921875,-1.0415046101748944,-0.17208324432373046,-0.45919513584077354
1726398287232747000,2.1187470703125,-1.0666577561318873,-0.23697160381972787,-0.7816372839361428
1726398287242796300,2.12879638671875,-0.6825929723381996,-0.261292975127697,-0.8558458449631929
1726398287252844000,2.138843994140625,-0.12721359050571918,-0.12861878112852573,-0.7172726560533046
1726398287262893300,2.148893310546875,0.0031233927175402638,-0.12703238871991634,-0.5606324800550937
1726398287272941000,2.158941162109375,-0.5075535085573792,-0.21370237191319463,-0.5259095417201519
1726398287282990300,2.168990234375,-1.4420514499530195,-0.23285189354121683,-0.5323468812912703
1726398287293038000,2.1790380859375,-2.1023779376864433,-0.14666063377559185,-0.7369716282576322
1726398287303087400,2.18908740234375,-1.8430390192359685,-0.14563772046864032,-0.8963912058413028
1726398287313136000,2.19913623046875,-0.9735530637159943,-0.3463292196393013,-0.6797951583132147
1726398287323184000,2.20918408203125,-0.3260504017204046,-0.35563188551366326,-0.32521278185248376
1726398287333233200,2.219233154296875,-0.3689408644199371,-0.556404048705101,-0.47018210154026746
1726398287343281200,2.22928125,-0.12184154207855462,-0.2969692686647177,-0.6063374156534671
1726398287353330200,2.239330078125,-0.10850362933874129,-0.28097032002210615,-0.7217991935670376
1726398287363378000,2.2493779296875,-0.2055611510336399,-0.42733927737474436,-0.6404585887029767
1726398287373427200,2.25942724609375,-0.37764497987926005,-0.6261819338083267,-0.6280208396732807
1726398287383475000,2.269474853515625,-0.42518356064558027,-0.7030050612479448,-0.5480608755126595
1726398287393524200,2.279524169921875,-0.093293200725317,-0.5680208367407321,-0.44884003830403085
1726398287403572000,2.289572021484375,0.1993044287264347,-0.49022974105179307,-0.4915434539988637
1726398287413621200,2.299621337890625,0.2415285364717245,-0.5206652113258838,-0.6389280181348324
1726398287423669000,2.3096689453125,0.5913537815332413,-0.45616205175518987,-0.8673495280131697
1726398287433718300,2.31971826171875,1.0295119745641945,-0.43484453843832016,-0.98691464959234
1726398287443767000,2.32976708984375,1.0945353586167097,-0.5350456188559531,-0.7864698186591267
1726398287453815300,2.339815185546875,1.1020289292424916,-0.4627928680717945,-0.5720854558311402
1726398287463864000,2.349864013671875,1.2145856333643197,-0.4622165294885635,-0.8337386425733566
1726398287473912000,2.359912109375,0.9153951815187931,-0.7720821046054362,-1.0749405774392187
1726398287483961000,2.369961181640625,0.4006003235310316,-0.9368974037528037,-1.119403696282953
1726398287494009000,2.380009033203125,0.121143330681324,-0.7618389430105685,-1.2320002940237522
1726398287504058000,2.39005810546875,0.2484954528748989,-0.4542056569904089,-1.1425452101565896
1726398287514106000,2.400106201171875,0.7221627661824226,-0.29488369456231595,-0.7391710379980504
1726398287524155100,2.410155029296875,1.1860440140128135,-0.2652396669268608,-0.4720383969314396
1726398287534203100,2.420203125,1.436345639526844,-0.28916414787173267,-0.53095776502043
1726398287544252200,2.430252197265625,1.1919891861528158,-0.3738379888117313,-0.6370271529495716
1726398287554301000,2.440301025390625,0.6381529421091079,-0.4237263475745916,-0.8686895444452762
1726398287564349200,2.45034912109375,0.09872750073373317,-0.4717705397754907,-1.2069893330164252
1726398287574398000,2.46039794921875,-0.326081381380558,-0.5383686257988214,-1.3759221504852175
1726398287584446200,2.4704462890625,-0.5113625454515218,-0.5147860901594161,-1.277915803632885
1726398287594495000,2.480494873046875,-0.6102268243074417,-0.32924656741321084,-1.101844658716768
1726398287604543200,2.490543212890625,-0.596863484865427,-0.12486293572634458,-0.910569149601832
1726398287614592000,2.500592041015625,-0.36151509833335876,-0.018805238234996795,-0.7451527427561581
1726398287624640300,2.51064013671875,-0.023209610673785207,0.04956190328747034,-0.6426217580862343
1726398287634689000,2.52068896484375,0.39150457840561864,0.08151508464813231,-0.7113202504549175
1726398287644737000,2.530737060546875,0.6346499024242163,-0.05533084207773208,-0.7885352998215704
1726398287654786000,2.5407861328125,0.6688871030688286,-0.214035549390316,-0.770767441810295
1726398287664834000,2.550833984375,0.6601905863940716,-0.15411474917382,-0.7540420055240392
1726398287674883000,2.560883056640625,0.4429454273074865,-0.11333557953983545,-0.7690384991258382
1726398287684932400,2.570932373046875,-0.009898878201842307,-0.1726458466425538,-0.6831739870965481
1726398287694980000,2.58097998046875,-0.16966507726609706,-0.16462620631605385,-0.6618658261299133
1726398287705029000,2.591029052734375,-0.21699264563024043,-0.1344926415979862,-0.75355086100623
1726398287715077000,2.6010771484375,-0.2637666717648506,-0.11152677655220031,-0.8506053139612079
1726398287725126100,2.611126220703125,-0.11870645892322063,-0.12142360892742872,-1.0108424915380776
1726398287735174100,2.621174072265625,0.3346329366266727,-0.13781477175801993,-1.230510347726941
1726398287745223200,2.63122314453125,0.6871791310846805,-0.2209600879564881,-1.1973849077165126
1726398287755271200,2.641271240234375,0.7522825946360826,-0.39758711318969725,-1.1371578180298207
1726398287765320000,2.65131982421875,0.6863830122709274,-0.5130360316216945,-1.192773176137358
1726398287775368200,2.6613681640625,0.5399836597800255,-0.5365300121948122,-1.2653363080449402
1726398287785417000,2.6714169921875,0.32582185366153715,-0.4814674656644463,-1.3869044400095938
1726398287795466200,2.68146630859375,-0.020369418811798094,-0.49568157671689983,-1.422739285109192
1726398287805514000,2.691513916015625,-0.18115619309544562,-0.5109904972687364,-1.4330115266680716
1726398287815563300,2.701563232421875,-0.19590251132845876,-0.5306622892051935,-1.4869520834311842
1726398287825611000,2.711611083984375,-0.06348433791697025,-0.6800742675155401,-1.5766922678500412
1726398287835660300,2.721660400390625,0.24944354737997054,-0.7756944498836994,-1.6153277034536002
1726398287845708000,2.7317080078125,0.5412275223612785,-0.7570812270894646,-1.443675982414931
1726398287855757300,2.74175732421875,0.8610761468321084,-0.689291300933063,-1.1247302250679583
1726398287865805000,2.75180517578125,1.0170283405661582,-0.5964259702309965,-0.8964004120610654
1726398287875854000,2.76185400390625,0.7777098813593387,-0.4797407880023122,-0.7081872861914337
1726398287885902000,2.771902099609375,0.4470984553337097,-0.3923576881036162,-0.5369295694390311
1726398287895952000,2.781951904296875,0.1798807663321495,-0.308009425856173,-0.5134415436826646
1726398287906001200,2.792001220703125,-0.018111410751938818,-0.34612463697791096,-0.7161409486096352
1726398287916049000,2.802048828125,-0.09610241292715072,-0.5366124297812581,-0.9162865043353289
1726398287926098200,2.81209814453125,-0.09300327786803245,-0.7379042329326272,-1.1247468839418142
1726398287936146000,2.82214599609375,-0.06786416043639183,-0.9022463616102934,-1.2653127810388802
1726398287946195000,2.83219482421875,0.06738777509629726,-0.9342492273315787,-1.2587082682073116
1726398287956243000,2.842242919921875,0.24412615174949168,-0.7397922386363148,-1.0207369858257471
1726398287966292000,2.8522919921875,0.4563052596181631,-0.5460609338670969,-0.6596214812692255
1726398287976340000,2.862340087890625,0.6383680461645126,-0.4932992116250097,-0.3845850813407451
1726398287986389000,2.872388916015625,0.708821638572216,-0.5144330389380455,-0.1123049943830818
1726398287996437000,2.88243701171875,0.7195598902076482,-0.5489169078201055,0.033589696521311996
1726398288006486000,2.892486083984375,0.5428501551270485,-0.5497025052398443,-0.025654008151218294
1726398288016534000,2.902533935546875,0.15363748705089092,-0.5824994439482688,-0.2914434179153293
1726398288026583000,2.9125830078125,-0.09465864385962486,-0.7003728130482136,-0.5740297217667103
1726398288036632000,2.922632080078125,-0.1180845276325941,-0.829160228741914,-0.7344445209328084
1726398288046680000,2.93268017578125,0.013225976797938346,-0.9021795799843967,-0.8255689262516797
1726398288056729000,2.94272900390625,0.10399112035036086,-0.9608731764934957,-0.8600308755628764
1726398288066777000,2.952777099609375,0.14838848048150538,-0.9518135255947708,-0.7991882843263447
1726398288076826000,2.962826171875,0.06316811157464981,-0.8769137674331664,-0.5980275602087378
1726398288086874000,2.9728740234375,-0.0219768540084362,-0.8572656486332416,-0.4972187231563031
1726398288096923100,2.982923095703125,-0.04566226550042629,-0.9119833272486925,-0.6423937945492565
1726398288106971100,2.99297119140625,-0.1061111812442541,-0.9985156555369495,-0.896494520085305
1726398288117020000,3.00302001953125,-0.08527414492070674,-1.126325458370149,-1.0580313820838927
1726398288127068200,3.013068115234375,0.026288287466764447,-1.2057156598187981,-1.044571304269135
1726398288137117000,3.023116943359375,0.08380407236814498,-1.1492001380011438,-0.8968537087865174
1726398288147166000,3.033166015625,0.1517471432596445,-1.03251378672868,-0.7044041143909097
1726398288157214000,3.0432138671875,0.1660112309336662,-0.9349595675580203,-0.6428645538661628
1726398288167263000,3.053262939453125,-0.06607084727883339,-0.895371653535217,-0.7423414847277104
1726398288177311000,3.06331103515625,-0.40881402512490744,-1.0161229161590337,-0.953834071636945
1726398288187360000,3.073360107421875,-0.5685410612225532,-1.1927655773527919,-1.2074645493127405
1726398288197408000,3.083407958984375,-0.48665363613069057,-1.3114615148819981,-1.391614371266216
1726398288207457000,3.09345703125,-0.21574995209276676,-1.298832042672485,-1.370815182735026
1726398288217505000,3.103505126953125,0.0963823989123106,-1.2055670451283453,-1.103611522258818
1726398288227554000,3.113553955078125,0.3707739250659942,-1.045793685670942,-0.8505114981979132
1726398288237602000,3.12360205078125,0.4666606494158506,-0.9210833101578056,-0.6422282287240028
1726398288247651000,3.133651123046875,0.3704045072317123,-0.863046570122242,-0.5690647197704762
1726398288257699800,3.143699951171875,0.2471931381046772,-0.8770464539021253,-0.7125432894438505
1726398288267747800,3.153747802734375,0.12186053903996943,-0.8973721797026694,-0.9717024674132466
1726398288277796900,3.163796875,0.07166121463179588,-0.982605408091098,-1.2169028242655098
1726398288287844900,3.173844970703125,0.2444517304420471,-1.063351992584765,-1.1583416219644247
1726398288297894000,3.183893798828125,0.5228612600654363,-1.0710874091424047,-0.8843183446012437
1726398288307942000,3.19394189453125,0.7197083587676286,-1.0279347883753478,-0.6196639302164316
1726398288317991000,3.203990966796875,0.8366934007257223,-0.9371528398185968,-0.3788867966338992
1726398288328039000,3.214038818359375,0.7855617639034986,-0.8101186975330114,-0.2134886195646599
1726398288338088000,3.224087890625,0.6665104370653628,-0.7211071196496486,-0.12336603909893892
1726398288348136000,3.234135986328125,0.6178256088733672,-0.7404952723391354,-0.16143557531489058
1726398288358185000,3.24418505859375,0.7843962272554635,-0.8606682966835796,-0.2631887988116592
1726398288368234000,3.25423388671875,1.0471160203158856,-1.0163250146023928,-0.36662904381360856
1726398288378282000,3.264281982421875,1.2556833674281835,-1.1542581520430744,-0.25225053109209983
1726398288388331000,3.2743310546875,1.2616957595854996,-1.1687255072042346,-0.05547297222847119
1726398288398379000,3.28437890625,1.1730857482403516,-1.1099351723223925,0.10489106486476957
1726398288408428000,3.294427978515625,0.9844517666101456,-1.091526532189548,0.1515532007232774
1726398288418476000,3.30447607421875,0.7574608740568161,-1.189585778272897,-0.007815034832223318
1726398288428525000,3.314525146484375,0.5164671751141547,-1.386973121331632,-0.1097182932249736
1726398288438572800,3.32457275390625,0.42964696979522704,-1.5761346339672804,-0.08257811076976358
1726398288448622000,3.3346220703125,0.41798692713975905,-1.7783805229730902,-0.16024167108889667
1726398288458669800,3.344669921875,0.3846797008216381,-2.1099919198215007,-0.39549569386839867
1726398288468719000,3.354718994140625,0.2547831548422575,-2.501027419410646,-0.7374027862165122
1726398288478768000,3.36476806640625,0.10729133093953132,-2.7650468968927857,-1.0476288652088492
1726398288488816000,3.374816162109375,0.1519125629544258,-2.961612840566039,-1.0943658472687006
1726398288498865000,3.384864990234375,0.2897989386439323,-2.990919014549255,-0.5988259440448135
1726398288508913200,3.3949130859375,0.3581558510333299,-2.7492618832617994,0.20516946656862273
1726398288518962000,3.4049619140625,0.3787847975641489,-2.3564193342506883,1.088773068762943
1726398288529010200,3.41501025390625,0.28848201082646846,-1.972492936014384,1.8330225060038268
1726398288539059000,3.425058837890625,0.19807634823620318,-1.8041130762532351,2.2070535331696273
1726398288549107200,3.435107177734375,0.02772913392484188,-1.8185801391534506,2.015687203966081
1726398288559156000,3.445156005859375,-0.2330576452463865,-2.077664790581912,1.485824248445034
1726398288569204000,3.455203857421875,-0.4670616314321756,-2.4083156718350947,0.9596894466016441
1726398288579253000,3.4652529296875,-0.6767027452558279,-2.5727935557216406,0.8621415841065346
1726398288589302000,3.475302001953125,-0.6873305222541093,-2.397029430928081,1.4565994691349564
1726398288599350000,3.48535009765625,-0.6307178236722946,-1.9637286148004234,2.1811801101140675
1726398288609399000,3.49539892578125,-0.6103291156381369,-1.5629168404757976,2.796479561510682
1726398288619447000,3.505447021484375,-0.6423410414487123,-1.2936883961737156,3.2096836382880807
1726398288629496000,3.51549609375,-0.74480889775455,-1.1802315283417701,3.3491590367347
1726398288639544000,3.5255439453125,-0.8331360005050897,-1.1426667907096444,3.413559028191864
1726398288649592800,3.5355927734375,-0.7727309239029884,-1.0853604107752441,3.480830191171169
1726398288659641000,3.54564111328125,-0.4465437440603971,-0.9675726741321384,3.655129942500591
1726398288669689900,3.55568994140625,-0.13086159161925315,-0.7186693711087108,4.0403123321473595
1726398288679738000,3.565738037109375,0.1530190628916025,-0.34009354012012477,4.736558566784859
1726398288689787000,3.575786865234375,0.41553427329063414,0.05756605378389358,5.049216402968764
1726398288699836000,3.5858359375,0.33192484671175476,0.16973068984821438,4.8334103367745875
1726398288709884000,3.5958837890625,-0.03106616939306259,0.018088760528713464,4.344577018517255
1726398288719933000,3.605932861328125,-0.38149697913229463,-0.2625488204076886,3.643093467748165
1726398288729981000,3.61598095703125,-0.7379705761671066,-0.5744955857127905,3.0374110088720916
1726398288740030000,3.626030029296875,-0.9099877695173024,-0.6080104634322225,2.859835012350976
1726398288750078000,3.636077880859375,-0.7378519182235002,-0.34404695392102,3.0921172893106936
1726398288760127000,3.646126953125,-0.3402116135418415,0.025699381662905214,3.6495901362910863
1726398288770175000,3.656175048828125,0.037788171124458314,0.32796909482330083,4.03027726034522
1726398288780224000,3.66622412109375,0.2732131300240755,0.3719448685415089,4.021750255018472
1726398288790273000,3.67627294921875,0.2864016974210739,0.14104936976507304,3.7913542301967738
1726398288800321000,3.686321044921875,0.0662701692432165,-0.11240341325625777,3.5188045325174926
1726398288810370000,3.6963701171875,-0.3344891442418098,-0.3191423758976161,3.2095188031151887
1726398288820417800,3.706417724609375,-0.6827794348210096,-0.3852259365275502,2.9261440522998567
1726398288830467000,3.716467041015625,-0.8905190989375114,-0.27677403737604617,2.8213106359064577
1726398288840514800,3.726514892578125,-0.8884265105724334,0.006916209129244089,2.8192595485955474
1726398288850564000,3.736564208984375,-0.6721656863480806,0.33045638159438967,3.135220225717127
1726398288860611800,3.74661181640625,-0.33855858563780783,0.4999513629905879,3.5482658970624206
1726398288870661000,3.7566611328125,-0.14619418530762196,0.5521196493841707,3.965955887082219
1726398288880708900,3.766708984375,-0.11067629720270633,0.611255875094235,4.284209351316094
1726398288890758100,3.776758056640625,-0.23438392541408537,0.570451278758049,4.180756575626135
1726398288900806700,3.786806640625,-0.3795774092465639,0.32814766626060005,3.6940465331330894
1726398288910854700,3.796854736328125,-0.3774602709621191,0.09154737997129558,3.10782689961791
1726398288920903700,3.806903564453125,-0.24234920520484446,0.001478694250434637,2.63887141726315
1726398288930951700,3.81695166015625,-0.11958967149853705,-0.009133592917770147,2.433254444389045
1726398288941000700,3.827000732421875,-0.026541969966888426,0.07258505147844553,2.6063784299373625
1726398288951048700,3.837048583984375,-0.04636427628993988,0.2535400229133665,3.0351416026353832
1726398288961097700,3.84709765625,-0.2242354563653469,0.4488242562130093,3.5022140477225183
1726398288971145700,3.857145751953125,-0.3338157750248909,0.5641542244404554,3.6408299067303536
1726398288981194800,3.86719482421875,-0.2985813800364733,0.4922609546184539,3.5366549542456864
1726398288991242800,3.87724267578125,-0.13440320974886416,0.3327237420044839,3.3798896905630826
1726398289001291500,3.88729150390625,0.07536942149996757,0.20777809643074868,3.245907336574793
1726398289011340500,3.897340576171875,0.1701864707916975,0.14736206004321575,3.185294170179963
1726398289021388500,3.907388427734375,0.16111176845431327,0.1902326489984989,3.1830569126471877
1726398289031437600,3.9174375,0.09858838452398777,0.24117870012074707,3.190359636875987
1726398289041485600,3.927485595703125,0.09813479553759097,0.24013123689442872,3.1386268192902205
1726398289051534600,3.93753466796875,0.23446225134730336,0.23173209573104978,3.1356054256424306
1726398289061582600,3.94758251953125,0.5135737917602062,0.21931100557520986,3.1978391789764165
1726398289071631600,3.957631591796875,0.7725655042082071,0.2479595924325287,3.2876074204459784
1726398289081679600,3.9676796875,0.6776420719325542,0.24048034259304402,3.4468843746885653
1726398289091728600,3.977728759765625,0.4250549658298492,0.211005826305598,3.502039567938447
1726398289101776600,3.987776611328125,0.09843056361377239,0.18923793887272475,3.4189676092371344
1726398289111825700,3.99782568359375,-0.237307119384408,0.14323153610974548,3.308824688258767
1726398289121874700,4.007874755859375,-0.33872342081069945,0.06890212518200278,3.283891322532296
1726398289131922700,4.017922607421875,-0.15802724644243715,-0.03987228392213583,3.19491393917948
1726398289141971700,4.0279716796875,0.03572130172252655,-0.03358984265178442,3.234828893199563
1726398289152019500,4.03801953125,0.11616203513741492,0.0008580781340599059,3.3541450084537265
1726398289162068500,4.048068359375,-0.02085457198023796,-0.11114479149729013,3.5508640968620777
1726398289172116500,4.058116455078125,-0.3386486020088196,-0.24373978278040884,3.6679756878092884
1726398289182165500,4.06816552734375,-0.5738210474520922,-0.42367783225774763,3.3309289680391547
1726398289192213500,4.078213623046875,-0.6770932058781385,-0.7700403696447611,2.798454953236878
1726398289202262500,4.088262451171875,-0.641629093787074,-1.1039335938200354,2.3681227776564655
1726398289212311600,4.0983115234375,-0.45015375125110146,-1.3038316045254468,2.0464009066596627
1726398289222359600,4.108359619140625,-0.3422480878055095,-1.4666468158967791,1.970902890343964
1726398289232408600,4.11840869140625,-0.2775572967082262,-1.5541291383862494,2.2065169420748947
1726398289242456600,4.12845654296875,-0.07070669038593769,-1.4877473254621028,2.6386303019836546
1726398289252505600,4.138505615234375,0.2720785730361938,-1.2648331808283924,3.118191641765833
1726398289262553600,4.1485537109375,0.7013608011722564,-0.9899871158402412,3.7008623506277796
1726398289272602600,4.1586025390625,1.1070207461804151,-0.6153709822628647,4.351255765628815
1726398289282650600,4.168650634765625,1.4045301130712031,-0.3825904734574258,4.922193366599083
1726398289292699600,4.17869970703125,1.3561562505245208,-0.38931744362488385,5.379699818700551
1726398289302747600,4.18874755859375,0.8178034068167209,-0.6155057876236737,5.6058969305276865
1726398289312796700,4.198796630859375,0.1141068561732769,-0.9533705457784235,5.39712207814455
1726398289322845700,4.208845703125,-0.2586643801897764,-1.3139279049955308,5.037232535186409
1726398289332893700,4.218893798828125,-0.2472486676841974,-1.6300572166822849,4.958022804871201
1726398289342942700,4.228942626953125,0.08322247308790683,-2.108598858027905,5.134881593033671
1726398289352990700,4.23899072265625,0.46206338475346564,-2.7123200998336077,5.187671518456936
1726398289363039700,4.249039794921875,0.8822750022053718,-3.176249862980842,5.028479319888353
1726398289373087700,4.259087646484375,1.273144205316901,-3.4828187346398827,4.7690246661037206
1726398289383136500,4.269136474609375,1.6388614315152168,-3.841229437217116,4.337933927240967
1726398289393184800,4.279184814453125,1.7565917388826608,-4.2136078748703,3.709286187840998
1726398289403233500,4.289233642578125,1.720833612281084,-4.431300777724385,3.1564541524037715
1726398289413282600,4.299282470703125,1.6019307540029286,-4.471600639408827,2.854710508944094
1726398289423330600,4.30933056640625,1.2362848394751549,-4.483286985549331,2.734383463081717
1726398289433379600,4.319379638671875,0.8031734084397554,-4.486767228880525,2.6573843945533038
1726398289443427600,4.329427490234375,0.40602176405787466,-4.494691007617115,2.511848088632524
1726398289453476600,4.3394765625,0.1752928540199995,-4.535639688599109,2.3156501014888287
1726398289463524600,4.349524658203125,0.08687573489844798,-4.659944698181748,1.981473676458001
1726398289473573600,4.35957373046875,0.10366846426725387,-4.7672968193978065,1.4686802214205263
1726398289483621600,4.36962158203125,0.13784195202589034,-4.786897591924667,1.108990219622478
1726398289493670700,4.379670654296875,0.009266425517201422,-4.72157902431786,1.0587786202546208
1726398289503718700,4.38971875,-0.13401216460466384,-4.531738004985452,0.9733722272563725
1726398289513767700,4.399767578125,-0.059662149280309676,-4.395524530944228,0.9313986602060497
1726398289523816700,4.409816650390625,0.0288391409933567,-4.355680596333742,0.8409520810835063
1726398289533864700,4.41986474609375,0.10159458060264587,-4.4553661284446715,0.405380032088235
1726398289543913700,4.429913818359375,0.17662497940659522,-4.572533833493292,0.11543445151522755
1726398289553961500,4.43996142578125,0.08067278860509396,-4.519222222283482,0.4950817841928452
1726398289564010500,4.450010498046875,-0.0972141735613346,-4.321159610311687,1.020220852997154
1726398289574058500,4.46005859375,-0.14439561145305632,-4.114232723882794,1.2555024579033254
1726398289584107500,4.470107421875,0.006722586253285407,-4.130613073058426,1.2217210382021964
1726398289594155500,4.480155517578125,0.31323943546414373,-4.392455498762429,0.8278009230874478
1726398289604204500,4.49020458984375,0.6428560052335262,-4.741951950260996,0.4025746192786842
1726398289614253600,4.500253662109375,0.5939204171508551,-5.029686357590556,0.3765167065016925
1726398289624301600,4.510301513671875,0.4348609050512314,-5.014858790814876,0.2040617793213576
1726398289634350600,4.5203505859375,0.4566320073544979,-4.899891810680925,-0.14769523752033709
1726398289644398600,4.530398681640625,0.4560241045892238,-4.780842529669404,-0.36074557526558637
1726398289654447600,4.540447509765625,0.11067805076837539,-4.754169334538281,-0.41480274414569135
1726398289664495600,4.55049560546875,-0.08223112396299838,-4.772750116367638,-0.23392887512296437
1726398289674544600,4.560544677734375,0.009683189624547959,-4.6630987782984965,0.32939430532082914
1726398289684592600,4.570592529296875,0.17509820823073385,-4.454173119267821,0.5201178065761923
1726398289694641700,4.5806416015625,0.30226328341960906,-4.409858761245012,0.11322729685977101
1726398289704689400,4.590689453125,0.18443126924335956,-4.51116926420927,-0.40821766666695475
1726398289714738700,4.60073876953125,-0.13837211337983607,-4.559070248547196,-0.571129178019613
1726398289724787700,4.61078759765625,-0.5673240866482258,-4.511230639007687,-0.616896730525419
1726398289734835700,4.620835693359375,-0.8719465004146099,-4.38835887709856,-0.8530182933870702
1726398289744884700,4.630884765625,-1.1664034939974546,-4.291505353543162,-1.2586448475822805
1726398289754932700,4.6409326171875,-1.3277923258274793,-4.105433331355452,-1.510955182570219
1726398289764981500,4.6509814453125,-1.160790914812684,-3.8040520914673803,-1.1330119503967464
1726398289775029800,4.66102978515625,-1.0236211629599332,-3.4109713497862217,-0.35787652263529596
1726398289785078500,4.67107861328125,-1.2776666511774062,-3.0390324725940823,0.13247180329486727
1726398289795126800,4.681126708984375,-1.763730504721403,-2.8339146814137695,0.07504581556878984
1726398289805175600,4.691175537109375,-2.183944460260868,-2.7474346678346393,-0.24690811061821877
1726398289815224600,4.701224609375,-2.3260049067646262,-2.7881939637243747,-0.599963569772616
1726398289825272600,4.7112724609375,-2.3207716822862623,-2.900519197177887,-0.9437628325428813
1726398289835321600,4.721321533203125,-2.324348956251144,-3.104065501257777,-1.1851355939310044
1726398289845369600,4.73136962890625,-1.832085079023242,-3.2850048367321487,-1.19507027409859
1726398289855418600,4.741418701171875,-0.8741659300297498,-3.3945895393058656,-1.0518421720549465
1726398289865466600,4.751466552734375,0.2553980718702078,-3.3124636292830107,-0.8782577293880284
1726398289875515600,4.761515625,1.4814607925385237,-2.9800436925306912,-0.5151797656521201
1726398289885563600,4.771563720703125,2.191049908351898,-2.6416692312881347,-0.285760915299505
1726398289895612700,4.78161279296875,2.747707639557123,-2.381334579798579,-0.3223698135115206
1726398289905660700,4.79166064453125,2.9881361058324574,-2.0643764160722493,-0.46631782732754945
1726398289915709700,4.801709716796875,2.953442393592,-1.9549371133185922,-0.4597175522796809
1726398289925758700,4.8117587890625,3.3353584749192,-2.0341211246706545,-0.36808446678631007
1726398289935806700,4.821806640625,4.047638144990802,-2.134749782850593,-0.42788785116821526
1726398289945855700,4.831855712890625,4.696987603896856,-2.235005516064912,-0.501129393794015
1726398289955903700,4.84190380859375,5.495214788106083,-2.255466704813391,-0.6741554719258099
1726398289965952500,4.851952392578125,6.108488140502572,-2.2001230032540855,-0.750094144681096
1726398289976000800,4.862000732421875,6.364451445040106,-2.2015441220983862,-0.6590292875297368
1726398289986049500,4.872049560546875,6.811066500771045,-2.2992928409278393,-0.7218379912074655
1726398289996097800,4.882097900390625,7.413664729896188,-2.2415043765649196,-1.2135663002539425
1726398290006146600,4.892146484375,7.234228200200199,-2.1913030063301324,-1.763206773108244
1726398290016195800,4.90219580078125,6.786990044134855,-2.461203650805354,-1.9152431085728108
1726398290026243600,4.91224365234375,6.567611380150914,-2.799545671083033,-1.7187477459177374
1726398290036292900,4.92229296875,5.908509173515439,-3.4276156105950473,-1.8044062139809132
1726398290046340600,4.932340576171875,5.369046907261014,-4.003928182601928,-2.319875756359845
1726398290056390000,4.942389892578125,6.799404704549908,-3.180202984520793,-2.113367679864913
1726398290066437600,4.952437744140625,6.97053400914967,-2.870572387203574,-1.9743169365711508
1726398290076487000,4.96248681640625,6.303979148420691,-3.2879023117393253,-2.1808405028961597
1726398290086534700,4.97253466796875,4.9124441260010006,-3.7296938928365706,-2.442594958055764
1726398290096584000,4.982583984375,4.023592083492875,-3.895696063680947,-2.5703765577077866
1726398290106632700,4.9926328125,4.293874420762061,-3.9244361282140012,-2.608039056625962
1726398290116681000,5.002680908203125,4.946562668702006,-4.068152817492186,-2.4578721682950855
1726398290126729700,5.012729736328125,5.082368730986118,-4.152235706801712,-2.242555931444466
1726398290136777700,5.02277783203125,4.332485014185309,-4.079419184654951,-2.145168447142839
1726398290146826800,5.03282666015625,3.56355991230607,-3.856173908370733,-1.8599764177724718
1726398290156874800,5.042874755859375,3.369601520782709,-3.553337793499231,-1.6387623550549149
1726398290166923800,5.052923828125,3.3339842639565465,-3.467710012835264,-1.6386737999886274
1726398290176971800,5.0629716796875,3.031397155410051,-3.629529052776098,-1.6788282618530093
1726398290187020800,5.073020751953125,2.670108851569891,-3.796417358805239,-1.1927226149939
1726398290197068800,5.08306884765625,2.840482369366288,-3.6228120194807647,-0.569841330166161
1726398290207117800,5.093117919921875,3.144640672752261,-3.446670731937885,-0.39570831370577214
1726398290217166600,5.10316650390625,3.042494303485751,-3.642918403442204,-0.495828218645975
1726398290227214800,5.11321484375,2.125692762300372,-3.8945422174707054,-0.4512725992131978
1726398290237263600,5.123263671875,1.4542320093512535,-3.942200625224411,-0.041975759007409214
1726398290247312000,5.133311767578125,1.4259469951093195,-3.7593370436891913,0.052856853179633616
1726398290257360600,5.143360595703125,1.503707695659995,-3.85994699716866,0.2029075312523171
1726398290267409000,5.153408935546875,1.6431442234009503,-3.9796664325267073,0.2618750493319705
1726398290277457700,5.163457763671875,1.5296441009491681,-3.8181414070963857,0.3055609915244393
1726398290287505700,5.173505615234375,1.18929570928514,-3.4041666382074354,0.8695875161983072
1726398290297554700,5.1835546875,0.7117746431589126,-3.131751380562782,1.9688421584218738
1726398290307603700,5.193603759765625,-0.2659896085113287,-3.294167509613931,2.9266838582649823
1726398290317651700,5.203651611328125,-0.8562830673366785,-2.9709906175032255,2.791409126378596
1726398290327700700,5.21370068359375,-1.5379869818806646,-3.098060123363137,2.498363753159344
1726398290337748700,5.223748779296875,-1.8233020531088113,-3.5843428803548214,2.1931039182722567
1726398290347797800,5.2337978515625,-1.9173785131663084,-4.0261569655448195,2.0146667748771607
1726398290357845800,5.243845703125,-1.9468857626795768,-4.284204090619087,1.2580997809201477
1726398290367894500,5.25389453125,-1.1519032594799994,-3.9663223823070526,-0.40828236593361944
1726398290377942800,5.26394287109375,2.2419752089470624,-3.705373398311436,-1.827100714739412
1726398290387991600,5.273991455078125,2.0704022522330283,-4.07649248355329,-0.8173023984920234
1726398290398040800,5.284040771484375,-0.22662439732849596,-4.197201514470577,0.45678230254538355
1726398290408088600,5.294088623046875,-0.11285714837312698,-3.386988708913326,1.4111074456349015
1726398290418137900,5.304137939453125,-0.6381944431632757,-2.339886717122793,2.2497506652541457
1726398290428185600,5.314185546875,-0.7232014615803957,-1.6360970813684164,2.6579604408755895
1726398290438235000,5.32423486328125,-0.6803548380225897,-1.7774422192096708,2.669878842206299
1726398290448282600,5.33428271484375,-1.1542045221596955,-2.1128864722192287,2.3873254907764494
1726398290458332000,5.344331787109375,-1.8552169482856988,-1.9654015164487062,2.3613646816983818
1726398290468379600,5.354379638671875,-2.2237989162653684,-1.512018135626614,2.357885899671912
1726398290478429000,5.364428955078125,-2.3755162489086388,-1.039960887864232,2.700776669295132
1726398290488477700,5.374477783203125,-2.6469196991622446,-0.732550012423098,3.1495319519251583
1726398290498526000,5.38452587890625,-2.527312492007017,-0.5816920730881393,2.7116414699196816
1726398290508574700,5.39457470703125,-1.9005588957905768,-0.7740795620329678,1.6660782320037484
1726398290518622700,5.404622802734375,-1.6724591652125118,-1.4920818475350737,1.0919485569939016
1726398290528671700,5.414671630859375,-1.9446675021082163,-2.1449793543115256,1.236378509107977
1726398290538719700,5.4247197265625,-2.5967723972022534,-2.3799008937336503,2.149807797381282
1726398290548768800,5.434768798828125,-3.980504636916518,-2.1957415732994674,3.471611404187977
1726398290558816800,5.444816650390625,-4.495293649685382,-2.2849217857480046,3.8401346277177333
1726398290568865800,5.45486572265625,-4.306137690007686,-2.4295037135533986,3.624122517557442
1726398290578913800,5.464913818359375,-4.574849416959285,-2.2507078198485075,3.3308141094878314
1726398290588962800,5.474962890625,-5.141536374747753,-1.770797374367714,3.3835587344646454
1726398290599011600,5.485011474609375,-5.386849690455198,-0.9157678142234682,3.589552431696653
1726398290609059800,5.495059814453125,-4.911473235142231,-0.06580883534178138,3.401160442128777
1726398290619108600,5.505108642578125,-3.899986746612191,0.30324688762947916,2.6141230527147647
1726398290629156900,5.515156982421875,-3.130490566846728,0.19391937468722462,2.0707006506577135
1726398290639205600,5.52520556640625,-2.858770305728912,-0.22592691658362746,1.9002511450156567
1726398290649254000,5.53525390625,-3.400823172998428,-0.5314683448910713,1.7256211388185618
1726398290659302700,5.545302734375,-4.063556429612636,-0.6298749431073665,1.6193617812752723
1726398290669351000,5.555350830078125,-4.193537731266021,-0.6084595223739743,1.6376342278078198
1726398290679399700,5.565399658203125,-4.131849044594168,-0.3437356960147619,1.8950582525476811
1726398290689449000,5.575448974609375,-3.746045308178663,0.14331512273997069,2.4027117143481966
1726398290699496700,5.58549658203125,-3.0060417648792264,0.8947063214942812,2.844333784097433
1726398290709545700,5.595545654296875,-2.425987960517406,1.44413936214298,3.09626447211802
1726398290719593700,5.60559375,-2.064013427978754,1.5671546241760252,3.306054931284487
1726398290729642800,5.615642822265625,-2.2022037550508973,1.4578572141110897,3.3545132572442293
1726398290739690800,5.625690673828125,-2.1721727739244696,1.462862182791531,3.3637700381502507
1726398290749739500,5.635739501953125,-1.891802173361182,1.9687448355272412,3.318886355806887
1726398290759787800,5.645787841796875,-1.2796844207406044,2.1797288883924484,2.9979294778332113
1726398290769836500,5.65583642578125,-1.4914625465929507,1.5816268016427755,2.584424664543569
1726398290779885800,5.6658857421875,-2.5470149713426826,0.6418240318372845,2.4716294754907486
1726398290789933600,5.67593359375,-3.9172506006240844,-0.2230290031850338,2.3250860383540393
1726398290799982800,5.68598291015625,-4.377404352363944,-0.38854222146868705,2.137507410995662
1726398290810030600,5.696030517578125,-3.992721728932857,0.5666369811668992,2.23814629830867
1726398290820079900,5.706079833984375,-3.371161609706282,1.8174805073484777,2.5905986770033835
1726398290830127600,5.716127685546875,-2.982903465875983,2.3907263852611185,2.9453078947141766
1726398290840177000,5.726177001953125,-3.3735014508306977,2.327978837186098,3.091246059434116
1726398290850224600,5.736224609375,-4.176287321257591,2.418397651518881,3.0018007663086057
1726398290860274000,5.74627392578125,-5.056879484942555,2.5458739846140146,2.88361657769382
1726398290870321700,5.75632177734375,-4.892057756054401,2.4460569350779053,3.109026338535547
1726398290880371000,5.766370849609375,-4.281714027369022,2.613618025802076,3.8006867066875096
1726398290890419700,5.776419677734375,-3.777797121748328,2.5402918005675077,4.395703979164361
1726398290900467200,5.78646728515625,-2.765790993258357,2.039087368775904,4.430775877067447
1726398290910516200,5.79651611328125,-2.241151617604494,1.6741770750463008,4.189663812442124
1726398290920564200,5.806564208984375,-2.7639912503600117,1.9009417576283216,3.7342595933169123
1726398290930613200,5.81661328125,-4.0277538793474434,3.0908424470692872,3.1262510295808315
1726398290940661200,5.8266611328125,-4.766680148804188,4.66101232741326,3.001507044059038
1726398290950710300,5.836710205078125,-3.842234814867377,5.686213745301962,3.306885244628787
1726398290960758300,5.84675830078125,-2.241915587714314,6.207496796265244,3.622100364080071
1726398290970807300,5.856807373046875,-1.2202946586608887,6.1075230948626995,3.4457653075307606
1726398290980856000,5.86685595703125,-1.5617565645247697,5.5437868035733695,2.8385861803561445
1726398290990904300,5.876904296875,-2.4529630612045525,4.89874614777714,2.511023912768066
1726398291000953000,5.886953125,-3.145896225771308,4.763736204306781,2.3531559485405684
1726398291011001300,5.89700146484375,-2.83395092177093,5.510985773211718,2.5926275524824858
1726398291021050000,5.907050048828125,-1.8105302498191593,6.278004749208688,2.9980186174213883
1726398291031098000,5.91709814453125,-0.4591758466184139,6.449151589465141,3.038859454114735
1726398291041147100,5.927147216796875,0.20636428411006927,6.322890185117721,2.5216455522865053
1726398291051195100,5.937195068359375,0.22307401137053964,5.865577794283628,1.818890081885457
1726398291061244200,5.947244140625,0.013849077132344245,5.129658889949321,1.4886035039000212
1726398291071293400,5.95729345703125,-0.5108996041148901,4.393188489212095,1.53759447543174
1726398291081341200,5.967341064453125,-1.1172440340310335,4.329197955338657,1.899735888969898
1726398291091390200,5.97739013671875,-0.6583902589738369,4.592232513436675,2.5162071606248615
1726398291101438200,5.987438232421875,1.256961716800928,5.075740252757072,2.7626047644376754
1726398291111487200,5.9974873046875,2.9052105698645114,5.729581762385368,1.9265055302128196
1726398291121535200,6.00753515625,3.3288831414252518,5.99060410387814,0.3970410236142575
1726398291131584300,6.017584228515625,3.119796738874912,6.136458097445964,-0.9150824623078108
1726398291141632300,6.02763232421875,2.785639603066444,6.028199967300892,-1.0975862706199289
1726398291151681300,6.037681396484375,1.7740975849568843,5.262124994155764,0.2789977778401226
1726398291161730300,6.047730224609375,0.7896037327706813,3.6270866280600425,1.7460434568613767
1726398291171778300,6.0577783203125,1.3474883754223583,1.3536241016983985,2.6658547012567517
1726398291181827300,6.067827392578125,3.0789713920116424,0.12312836701869964,2.934588932301104
1726398291191875300,6.077875244140625,4.258057257449627,0.7900114367887378,1.9488754751920698
1726398291201924400,6.08792431640625,3.798914144057035,2.451766544896364,0.16144326543100176
1726398291211972400,6.097972412109375,2.4566671764194963,4.352449067066609,-0.9556305265996604
1726398291222021400,6.108021484375,1.5223153654962778,5.329197127431631,-1.263399640893936
1726398291232069400,6.1180693359375,1.0446750569045542,5.142857978740334,-0.5097202216045931
1726398291242118400,6.128118408203125,-0.2545376556485891,4.061732136794925,0.9447390571638942
1726398291252167200,6.138167236328125,-1.0826187108516692,1.8007853931352495,2.1240248290881514
1726398291262215200,6.148215087890625,0.1548024391770363,-0.782144356675446,2.2870206577233967
1726398291272264200,6.15826416015625,1.965141550338268,-1.4700655382990837,1.4117987888999282
1726398291282312200,6.168312255859375,3.3722242705017327,-0.19664777673780917,-0.11774119408763944
1726398291292361200,6.178361328125,4.243739978283643,2.1177283592924474,-1.1148752590730786
1726398291302409200,6.1884091796875,4.133886687901616,4.759324233083427,-1.186122193815559
1726398291312458200,6.198458251953125,3.5449949125677347,6.220245803201198,-0.9181042943470179
1726398291322506200,6.20850634765625,3.4112481209009884,5.7282525596082206,-0.7959744368463754
1726398291332555300,6.21855517578125,3.2519857797056435,3.864355753521621,-0.5098546251066028
1726398291342604300,6.228604248046875,2.9892829377800223,1.8065204296559094,-0.15211758400723338
1726398291352652300,6.23865234375,3.226960644042492,1.0588260395929217,0.2781426953807473
1726398291362701000,6.248701171875,4.184097702747583,1.8704624482125043,0.6779882550217211
1726398291372749300,6.258749267578125,5.465683573195338,3.3731758721381424,0.47857773557230826
1726398291382798000,6.268798095703125,6.405439873510598,5.017815302532911,-0.2948800413005054
1726398291392846300,6.278846435546875,6.905331761398911,6.757105193480849,-0.5700511735245585
1726398291402895000,6.28889501953125,6.610535160598158,6.789548496446013,-0.14036825563311575
1726398291412943400,6.298943359375,6.780688313642144,5.114737799671292,-0.36943186280727386
1726398291422992100,6.3089921875,5.894136949291825,4.130203030952811,-0.13606909713447093
1726398291433041400,6.31904150390625,5.304709751906991,3.4533293130442497,0.5401631080001592
1726398291443089200,6.329089111328125,5.95645575056076,3.7044741113841533,0.9772653622373938
1726398291453138400,6.339138427734375,6.6362237286061045,4.146967703270912,0.6935492506384849
1726398291463186200,6.349186279296875,6.735508863222599,4.9269472831279035,0.20378625031560657
1726398291473235200,6.359235107421875,6.6289563679516315,5.545694683021306,0.19126023848056792
1726398291483283200,6.369283203125,6.369485347554087,5.408828882551193,0.23972031800597904
1726398291493332200,6.379332275390625,6.006670272538066,4.834028468672931,0.42292584484666584
1726398291503380200,6.389380126953125,5.483653529649972,4.119547489164769,0.9710402041122317
1726398291513429200,6.39942919921875,5.02210569320321,3.6588276279747483,1.5704399294570088
1726398291523478300,6.409478271484375,4.626796461817622,3.8490027015671133,1.9347911279991268
1726398291533526300,6.4195263671875,4.338087656497955,4.14721495603025,2.0286010460749266
1726398291543575300,6.4295751953125,4.108343081322312,4.14605701816678,1.5379282374307512
1726398291553623300,6.439623291015625,4.048893698009849,4.2337060755252836,0.7826094899691641
1726398291563672300,6.44967236328125,4.003507326841354,4.2500504766047,0.6308388197034597
1726398291573720300,6.45972021484375,3.473102227267623,4.163018089839816,1.1392623890936373
1726398291583769300,6.469769287109375,2.6697160528600214,4.085861200401187,1.6590734678082166
1726398291593817300,6.4798173828125,2.016067435455322,4.135298308265209,2.1347627884626386
1726398291603866400,6.489866455078125,1.8277292219012975,4.249380029997229,2.422499680010229
1726398291613915100,6.4999150390625,1.9394488906770944,4.0836838563621045,2.672082197469473
1726398291623963400,6.50996337890625,1.9931793118208645,3.8197947272613644,2.8746424131214616
1726398291634012200,6.52001220703125,2.0556278769493104,3.4928514683544636,2.9404174923241135
1726398291644060200,6.53006005859375,1.974620157301426,3.2563816765770315,2.9492630620807407
1726398291654109200,6.540109130859375,1.7150310634821653,3.252069366335869,3.0156670868366957
1726398291664157200,6.5501572265625,1.36007430075109,3.4248534524053333,2.938001663354039
1726398291674206200,6.560206298828125,0.6521183390974998,3.6958120815008875,2.8389143893972038
1726398291684254200,6.570254150390625,-0.2050596312522888,3.9162414235815404,2.659425837253034
1726398291694303200,6.58030322265625,-1.0698358016461134,4.078943383836746,2.2115403231948614
1726398291704352300,6.590352294921875,-1.718955543449521,4.258491849474608,1.9187308045580982
1726398291714400300,6.600400146484375,-1.8540841448634862,4.260511664864421,2.0116542951881886
1726398291724449300,6.61044921875,-1.8923206442773342,4.118263586834073,2.438735798409581
1726398291734497300,6.620497314453125,-1.545608562800288,3.8867230681523677,3.092695965981483
1726398291744546000,6.630546142578125,-0.6431628792256117,3.697221071515977,3.897710910634696
1726398291754594300,6.64059423828125,0.6406675552785396,3.6040783851772544,4.3630251138776535
1726398291764643000,6.65064306640625,1.756912056878209,3.5204829871237275,4.364890323227644
1726398291774691300,6.66069140625,1.5641922672390938,3.607404314729571,4.24188119867444
1726398291784740000,6.670739990234375,0.618961919426918,3.804052383728325,4.282980686303973
1726398291794789400,6.680789306640625,0.02857610614299774,3.9055078481212258,4.229539603495597
1726398291804837000,6.690837158203125,-0.1372381409138441,3.8607317178055642,3.9190217019498346
1726398291814886400,6.700886474609375,-0.23083412397801875,3.625957624030113,3.743118022555113
1726398291824934100,6.71093408203125,-0.4848170683532953,3.3483483048737046,3.6373011480823156
1726398291834983400,6.7209833984375,-0.44906011079549785,3.1009801024630663,3.578372281512618
1726398291845031200,6.73103125,-0.5068827696889638,2.841959456181526,3.720562491875887
1726398291855080200,6.741080078125,-0.6691594902694225,2.6728812388926744,3.7860768743157385
1726398291865128200,6.751128173828125,-0.6550391949802636,2.6553537655085324,3.7380940569132566
1726398291875177200,6.76117724609375,-0.5722545287877321,2.677068753710389,3.7652611730411647
1726398291885226200,6.771226318359375,-0.3104389910906553,2.7390584691554305,3.879673149640858
1726398291895274200,6.781274169921875,0.03120996177792549,2.96324219533354,4.023900418789685
1726398291905323300,6.7913232421875,0.46714638710618017,3.303632964834571,4.332529145587981
1726398291915371300,6.801371337890625,0.7733031708329916,3.465613917338848,4.703930554902553
1726398291925420000,6.811419921875,0.8363397649824619,3.1866549371391533,4.864792147988081
1726398291935468300,6.82146826171875,0.5357260023355483,2.5519094653859735,4.631882971301675
1726398291945517000,6.83151708984375,0.18516484421491622,2.004330089779943,4.074118155637383
1726398291955565300,6.8415654296875,0.09646832363009453,1.8192047007925807,3.4907945358246564
1726398291965614000,6.851614013671875,0.012522212442755698,2.053046920545399,3.1886651079177852
1726398291975663000,6.8616630859375,-0.23615502673983574,2.262103512479365,3.2726188178896902
1726398291985711000,6.871711181640625,-0.8013976309388875,2.0599102304436263,3.4390792538955806
1726398291995760000,6.881760009765625,-1.4100257878780365,1.706372540730238,3.338822936159372
1726398292005808000,6.89180810546875,-1.4823171171069145,1.6101315961152314,3.359387000760436
1726398292015857200,6.901857177734375,-1.222509412100911,1.6729025250658391,3.7968738704010843
1726398292025905200,6.9119052734375,-0.8059785289883613,1.9003985906623302,4.047904102450609
1726398292035954200,6.9219541015625,-0.47613107307255265,2.145170785230398,3.9461116611883043
1726398292046002200,6.932002197265625,-0.4031482544481754,2.044998930907249,3.675212361064553
1726398292056051200,6.94205126953125,-0.38632688350677485,1.750795765955001,3.251257173170149
1726398292066100200,6.952100341796875,-0.4596721057027578,1.5918891063295304,2.919735938823223
1726398292076148200,6.962148193359375,-0.7549813322007656,1.5366574868425726,2.899619910250604
1726398292086197200,6.972197265625,-1.3237363284349442,1.547885860082507,3.0549741380915045
1726398292096245000,6.982244873046875,-2.164634195113182,1.6061438416533171,2.981812748029828
1726398292106294300,6.992294189453125,-2.4970500402122733,1.5142667913362382,2.645564777421951
1726398292116342000,7.002342041015625,-2.3556880973666905,1.6219902300827205,3.243862679004669
1726398292126391300,7.012391357421875,-2.087307209804654,1.489964416989684,4.862942428468168
1726398292136439000,7.02243896484375,-1.6381144125401972,0.7637525946121663,6.472524281746149
1726398292146488000,7.032488037109375,-1.0907961720883845,-0.16668222553040832,7.342239662107825
1726398292156537000,7.042537109375,-0.21842589330375192,-0.7226281186718493,7.704466123580932
1726398292166585000,7.052585205078125,0.6334563087254762,-0.7470458630263805,7.874497111549973
1726398292176634000,7.062634033203125,0.863676684719324,-0.8022269213698804,7.617846993792057
1726398292186682000,7.07268212890625,0.6778273653715848,-1.0190752631586044,6.887353037115931
1726398292196731100,7.082731201171875,0.7362561734646559,-1.2170650290898979,6.185737384399771
1726398292206779100,7.092779052734375,1.2064730540573596,-1.4748592023164033,6.078480540251731
1726398292216828200,7.102828125,1.108367484614253,-2.1167174286842343,6.057458795011043
1726398292226877200,7.112877197265625,-0.3810626793682575,-2.973804213619232,5.791026118907332
1726398292236925200,7.12292529296875,-1.2661901483952998,-3.5727626249372957,5.653559429934621
1726398292246974200,7.13297412109375,-1.3824515522539615,-3.6961142793178556,5.66238161881566
1726398292257022200,7.143022216796875,-1.538296193960309,-3.6685499805659054,5.949302371674776
1726398292267071200,7.1530712890625,-1.5417559790253639,-3.9045138686478134,6.2813049597978585
1726398292277119200,7.163119140625,-1.69476802765429,-4.319325088360905,6.43081981396079
1726398292287168300,7.173168212890625,-1.6122984187602996,-4.581137703448534,6.16138152630031
1726398292297216300,7.18321630859375,-1.278192720878124,-4.338816555294394,5.905794069337844
1726398292307265000,7.19326513671875,-0.7441407892346382,-3.70310954503268,5.865579547849297
1726398292317314000,7.20331396484375,0.07322130355536938,-2.916863598257303,5.849177863624692
1726398292327362000,7.213362060546875,0.7614478978663682,-2.122245544455945,5.996176351052522
1726398292337411000,7.2234111328125,0.9878139365196228,-1.9433774622976778,6.153629596999287
1726398292347459000,7.233458984375,0.8798200102686882,-2.1797654210105537,5.824162080311775
1726398292357508000,7.243508056640625,0.9315309082835912,-2.388645779594779,5.176873645588755
1726398292367556000,7.25355615234375,1.3307143507540224,-2.655772283181548,4.6244069363325835
1726398292377605000,7.263605224609375,1.5696388422071932,-2.8759891515552996,4.340905636528134
1726398292387653000,7.273653076171875,1.4971142887443303,-2.982421819838881,4.345061294902861
1726398292397702100,7.2837021484375,1.4441104283094406,-2.913440053549409,4.3469098453789945
1726398292407751200,7.293751220703125,1.6438859816789626,-1.9739771832227706,4.379134829418361
1726398292417799200,7.303799072265625,2.6879028669357297,-0.20052081877887248,5.036569687363505
1726398292427848200,7.31384814453125,4.901791214561462,2.0268673541501165,5.994008943885564
1726398292437896200,7.323896240234375,6.295348098197579,3.0768840643435715,5.980692366194725
1726398292447945200,7.3339453125,6.031382104468345,1.842104514864832,4.537386824527383
1726398292457993200,7.3439931640625,4.8138989960968495,-0.20946166560351848,2.595944714206457
1726398292468042200,7.354042236328125,3.734202310171723,-1.4689419410966336,1.0691355444222688
1726398292478090000,7.364090087890625,3.4633284367501735,-1.2958334453783928,0.4269317194871604
1726398292488139300,7.37413916015625,3.557883035713434,-0.42151305543929335,0.22651728369221089
1726398292498188300,7.384188232421875,3.6729251269102092,0.891420723952353,0.2038160609319806
1726398292508236300,7.394236328125,4.235511663642526,2.905419828701019,1.1790203989863395
1726398292518285300,7.404285400390625,5.244765863075852,3.8991798141434786,3.020177549998462
1726398292528333300,7.414333251953125,5.881112632545828,3.3528178515031932,3.8111853043481707
1726398292538382000,7.424382080078125,6.164230485990643,2.0030311360105872,3.1489214188113808
1726398292548430000,7.43443017578125,5.787084687805176,0.8312029866158962,2.735579394868016
1726398292558479000,7.44447900390625,4.823495676481723,0.2563090492352843,2.2621619646683335
1726398292568527000,7.454527099609375,3.8694992538899182,0.21174510036557911,1.4870496985867618
1726398292578576100,7.464576171875,2.3563480225801468,0.8016767401412129,0.628313100618124
1726398292588625200,7.474625244140625,1.0914899995714424,1.6680881105214356,-0.1507642697021365
1726398292598673200,7.484673095703125,0.5035983411908149,2.3793843225136397,-0.6898001272380352
1726398292608722200,7.49472216796875,-0.04959317520856857,2.574071320572495,-1.0636544826626777
1726398292618770200,7.504770263671875,-0.48939913544654845,2.3226029893666507,-1.0379543703474103
1726398292628819200,7.514819091796875,-0.9985194549292326,2.014797853910923,-0.7514614875115454
1726398292638867200,7.5248671875,-1.1192939522981642,2.0563082604289056,-0.7422863935396075
1726398292648916200,7.534916259765625,-0.732777683699131,2.2256398679569362,-0.8643782571174203
1726398292658965000,7.544965087890625,0.09433657229840754,2.2969234814479944,-1.0029949929080904
1726398292669013200,7.55501318359375,0.18807693226933478,2.514453887216747,-0.6075548286192118
1726398292679062000,7.56506201171875,-0.18889175578355788,2.6667472661823033,-0.10553206618204712
1726398292689110300,7.5751103515625,-0.9235966081529855,2.709331731672585,0.3681466453023255
1726398292699159000,7.585158935546875,-1.664087058186531,2.8066043574228883,0.8382231675762682
1726398292709207000,7.59520703125,-1.5989993767261503,2.8471120166391133,0.9112817548505961
1726398292719256000,7.605256103515625,-1.2407780592411757,2.584903680232167,0.48455498335100705
1726398292729304000,7.615303955078125,-1.359853935998678,2.0809967114835977,-0.2113083163835108
1726398292739353000,7.62535302734375,-1.444094646218419,1.6622376309275626,-0.5561248664375394
1726398292749401000,7.635401123046875,-1.3003057684868573,1.509537716987729,-0.49797239106781777
1726398292759450000,7.6454501953125,-1.262370297846198,1.5012936202555893,-0.6059236472208053
1726398292769499100,7.6554990234375,-1.2730834150403738,1.3838865534931422,-0.7111201247729361
1726398292779547100,7.665547119140625,-1.0798954233676195,1.0926426767379045,-0.40841486973948776
1726398292789596200,7.67559619140625,-0.8797925377398729,0.7622171286731958,-0.06394662166647613
1726398292799644200,7.68564404296875,-0.9089829763889312,0.2240659450173378,-0.1188271626934409
1726398292809693200,7.695693115234375,-1.1805144369363785,-0.4694827210992574,-0.6512654485952108
1726398292819741200,7.7057412109375,-1.12756376799345,-0.970966846615076,-0.24565394583866
1726398292829790200,7.715790283203125,-0.8061877878248691,-1.7075637963414192,0.15014175388962028
1726398292839839200,7.725839111328125,-0.8307815463334322,-2.1931039182722567,0.059834144846349954
1726398292849887200,7.73588720703125,-1.1438263360083103,-2.356315873876214,0.28215222328305245
1726398292859936300,7.745936279296875,-0.8714192616701125,-2.133206791192293,0.7848677902899682
1726398292869984300,7.755984375,-0.8575158240020274,-1.8635487233012913,0.8266757184498011
1726398292880033300,7.766033203125,-1.0935755736738442,-1.874894293180108,0.8365957855701446
1726398292890081300,7.776081298828125,-1.2391484122127294,-2.178843922251463,0.8696208339460194
1726398292900130300,7.78613037109375,-1.2998486723691225,-2.3812772966533897,1.0566446039006114
1726398292910178300,7.79617822265625,-1.0729290914863348,-2.1886995458334684,1.4012117823034524
1726398292920227300,7.806227294921875,-0.6042044952780008,-2.0168115318208932,1.6294050363838672
1726398292930276400,7.8162763671875,-0.6222568693190813,-1.8001573243647813,1.9685262243404984
1726398292940324400,7.826324462890625,-0.9830430688560008,-1.3484692031532526,2.1816703778490423
1726398292950373000,7.836373046875,-1.1623130098134278,-0.6426186893463134,2.125670988859981
1726398292960421400,7.84642138671875,-1.2774877874791621,0.05173252532482147,2.0094886415868998
1726398292970470100,7.85647021484375,-1.3275795598596334,0.6600140607833862,2.053772604471445
1726398292980518400,7.866518310546875,-1.5279291137248276,1.1574515412569046,2.2604171668276187
1726398292990567200,7.876567138671875,-1.9085493100225925,1.4053274009287358,2.492968323856592
1726398293000615400,7.886615478515625,-1.8971616545677183,1.7922656943321227,2.7238781434193253
1726398293010664200,7.896664306640625,-1.6562784302622078,1.9457839389175176,2.744091787147522
1726398293020713200,7.906713134765625,-1.616359676849842,1.7564508691072462,2.410337386921048
1726398293030761200,7.91676123046875,-2.1149884129345415,1.6071978807508944,2.1473723869279024
1726398293040810200,7.926810302734375,-2.5503467461138962,1.5858587401241062,2.0189906294256446
1726398293050858200,7.936858154296875,-2.725847689926624,1.5659166068136692,2.0075658568307757
1726398293060907300,7.9469072265625,-3.1350550982832908,1.5781816296249627,1.9220052961841225
1726398293070955300,7.956955322265625,-3.364101169800758,1.2666115886777638,2.124394831444323
1726398293081004300,7.96700439453125,-2.7546032442897554,0.5530781191527843,2.8016303684026003
1726398293091052300,7.97705224609375,-2.054652894437313,-0.032150457498431206,3.119901952815056
1726398293101101300,7.987101318359375,-2.0681769773989913,-0.4361263949424028,3.2573084360331297
1726398293111150300,7.997150390625,-2.542381466323137,-0.49946752499639985,3.442867540262639
1726398293121198000,8.007197998046875,-3.0950171024054285,-0.10299041887521743,3.7322523451477285
1726398293131247400,8.017247314453124,-3.036374943822622,0.4859919573515653,3.91958021261543
1726398293141295000,8.027295166015625,-2.4372049355804917,0.8506342477947473,3.93736282980442
1726398293151344400,8.037344482421876,-2.774750544783473,0.8037848183363676,3.9559915424287317
1726398293161392000,8.04739208984375,-3.083594960159063,0.5288461796939373,3.7584596763327713
1726398293171441400,8.05744140625,-3.442674355778098,0.56502223944664,3.3528619829058646
1726398293181489200,8.0674892578125,-4.083551169893146,1.054813589081168,3.4776737729668614
1726398293191538400,8.077538330078125,-4.368098179358244,1.5417366898030043,3.3518954759612676
1726398293201587200,8.087587158203124,-5.023201087224483,2.134828839436173,2.9201112018764017
1726398293211635500,8.097635498046875,-5.469527973663807,2.4576029959648844,2.87713510672003
1726398293221684200,8.107684326171874,-4.490801014441251,1.983437670007348,2.7247426512941715
1726398293231732500,8.117732421875,-3.5391146223574874,1.316015378794074,2.758146031463146
1726398293241781200,8.12778125,-3.211519329282641,1.095153782775998,2.9411528208613396
1726398293251829500,8.13782958984375,-3.107328886967897,1.3568418947011232,2.6873294509619474
1726398293261878300,8.147878173828126,-3.5599411372870207,1.948524762058258,2.019666921252012
1726398293271926500,8.157926513671875,-4.153492721125483,2.431581835001707,1.1248656149506568
1726398293281975300,8.167975341796875,-4.660246895998716,2.225578785419464,0.20084172129631042
1726398293292024300,8.1780244140625,-5.061105578204989,1.7114309931635856,-0.674018620738387
1726398293302072300,8.188072265625,-4.635420497778058,1.58232705886662,-1.1357780541092157
1726398293312121300,8.198121337890624,-4.338473440945148,2.268361696091294,-1.019497945550084
1726398293322169300,8.20816943359375,-4.684724919173121,3.17512553512603,-0.8823726173609495
1726398293332218000,8.218218017578126,-5.050481308338046,3.4456542483717203,-0.8098182532817125
1726398293342266400,8.228266357421875,-5.353104657241702,3.070879855492711,-0.6637094081699848
1726398293352315100,8.238315185546876,-6.121615917623043,1.956952690924704,-0.48702480753064153
1726398293362364400,8.248364501953125,-6.805417681229114,0.3809916599586606,-0.1658428886294365
1726398293372412200,8.258412109375,-6.472617805248499,-0.6560156387969851,0.6140583652943372
1726398293382461200,8.268461181640625,-5.134056248125433,-0.6212742880225182,1.3803291532725095
1726398293392509200,8.27850927734375,-3.475074988645315,0.12394845122992992,1.515446064248681
1726398293402558200,8.28855810546875,-2.826552628213167,1.2664163583666086,1.2043021397590636
1726398293412606200,8.298606201171875,-3.7384190510839224,2.423099837860465,0.7033586969912051
1726398293422655200,8.3086552734375,-5.337822332435846,3.274221284650266,0.31475919237732886
1726398293432703200,8.318703125,-6.541096882712841,3.8272351063951846,0.09982055666744709
1726398293442752300,8.328752197265626,-5.793378819513321,3.8521705179482697,0.20330138940811157
1726398293452801300,8.33880126953125,-3.1806635877698657,3.127326549857855,0.8635954361766576
1726398293462849300,8.348849365234376,-1.870869275447726,2.4556039311021567,1.8072054893106222
1726398293472898300,8.358898193359375,-2.632010299322009,2.314000726846605,2.195823114103079
1726398293482946300,8.3689462890625,-3.4906899064064025,2.8951635153636333,1.7126584891319274
1726398293492995300,8.378995361328125,-4.057666202530265,3.7488194490671156,0.896967252163589
1726398293503043000,8.38904296875,-4.305837245756387,4.098048481801152,-0.004019464774429798
1726398293513092400,8.39909228515625,-4.105122950232029,3.768369952711463,-0.8261968488916754
1726398293523140000,8.40914013671875,-3.1177801383554935,2.9013609086990355,-0.8788026499196887
1726398293533189400,8.419189453125,-1.776560175678134,2.278943588121235,-0.01578209102153778
1726398293543238400,8.42923828125,-1.1966384732633828,2.4728978879913686,1.094292489771545
1726398293553286400,8.439286376953126,-1.308531160518527,3.0510628098666666,1.7797496193692086
1726398293563335200,8.449335205078125,-1.362879421299696,4.23820747859776,2.297133324806392
1726398293573383400,8.459383544921875,-1.743648086157441,5.613028682103753,2.1529043020918963
1726398293583432200,8.46943212890625,-2.2903572548002002,6.514380725222826,1.3620327413424849
1726398293593480400,8.47948046875,-2.6905980973690746,6.855713451749086,0.8167404537603259
1726398293603529200,8.489529296875,-2.013205031761527,6.63225891662836,0.6601973083958029
1726398293613577500,8.499577392578125,-1.2043962477833032,6.190062261861562,0.571575898873806
1726398293623626200,8.509626220703124,-0.8297183010160922,6.233080150333047,0.5724032896086573
1726398293633675300,8.51967529296875,-1.28206108674407,6.5071379144877195,0.3461147001057863
1726398293643723300,8.52972314453125,-1.7378841158032416,7.260359251278638,0.3607343232192099
1726398293653772300,8.539772216796875,-1.5927461615502834,8.132471755909918,0.5281983833096922
1726398293663820300,8.5498203125,-0.3595107727736234,8.24873491333425,1.1236647147282957
1726398293673869300,8.559869384765625,1.0317647219270467,7.502525501132011,1.7210951858267187
1726398293683917300,8.569917236328125,2.365575869652629,6.422468165200948,1.6807937167070806
1726398293693966300,8.57996630859375,3.3175837487757205,5.964264963006973,1.324394061691314
1726398293704014300,8.590014404296875,3.687883042067289,6.6140802858591075,1.124797372020036
1726398293714063000,8.60006298828125,3.4429268692344426,7.755074613311886,0.8855593576382845
1726398293724112400,8.6101123046875,2.681539177122712,8.44092337257564,0.09294365663528442
1726398293734160100,8.62016015625,2.096370806226134,8.35244780126512,-1.2724760967969895
1726398293744209400,8.63020947265625,1.4355688099354504,8.097359525996445,-2.51287187872231
1726398293754257200,8.640257080078126,0.7338660634577274,7.576573903161287,-3.2917528496876356
1726398293764306400,8.650306396484375,0.1815092443168163,6.612234365731477,-3.469673714123666
1726398293774354200,8.660354248046875,-0.22937807995080947,5.826712349316478,-3.0437983718216417
1726398293784403200,8.6704033203125,-0.1399438927412033,5.921406649011373,-1.804301584562659
1726398293794452200,8.6804521484375,0.28635844280123707,6.901550489294529,0.04632555171474814
1726398293804500200,8.690500244140624,1.3186679391294718,7.9334899832665915,1.490716112139821
1726398293814549200,8.70054931640625,2.415962241065502,8.513675889575481,2.0408307053118944
1726398293824597200,8.71059716796875,2.8750580081850288,8.523497026365995,1.9195286769375204
1726398293834646300,8.720646240234375,2.883853309059143,7.938421594449877,1.5458249820299446
1726398293844694300,8.7306943359375,3.1955075211584565,6.984378410106897,1.2773621152728796
1726398293854743300,8.740743408203125,3.553158929800987,6.016539340123534,1.3366779353335498
1726398293864791300,8.750791259765625,3.403427218016982,5.250007270860672,1.5026400664284825
1726398293874840300,8.76084033203125,3.363305635508895,4.657175233468413,1.152560554344952
1726398293884889300,8.770889404296875,3.4880788471251725,4.544052712157368,0.6943126362264156
1726398293894937300,8.780937255859374,3.607055355161428,4.562230173882842,0.49781464322283864
1726398293904987000,8.79098681640625,3.756778299117088,4.68873707742393,-0.04203399200066924
1726398293915035000,8.801034912109374,3.84057009652555,5.185515217205881,-0.31556451741084457
1726398293925084000,8.811083984375,3.7653152413159607,5.7215632911026475,0.21579949032291768
1726398293935132000,8.8211318359375,3.8795617982208728,5.766107950749993,1.487146436959505
1726398293945181000,8.831180908203125,4.001036552813649,5.278783283489942,3.2008827844560144
1726398293955229000,8.84122900390625,4.047928652369976,4.601943175590038,4.717765018987655
1726398293965278000,8.85127783203125,4.639349069398642,3.4923335819602013,5.312346530395746
1726398293975326700,8.86132666015625,4.638001161921024,2.971638560017943,5.217558122676611
1726398293985375000,8.871375,4.056988157138228,2.659968565827608,4.668654951120913
1726398293995423700,8.881423828125,3.3352041611403225,2.705571794617176,3.5036642465308305
1726398294005472000,8.891471923828124,2.390759995269775,3.3355881920218464,2.6027093860357997
1726398294015520800,8.901520751953125,1.7497136698067188,3.451566395024955,2.1019562051430345
1726398294025569000,8.911569091796874,0.9707809686541556,2.7975439758718013,1.5233772956393659
1726398294035617800,8.92161767578125,0.13790566491186618,1.7145410880081355,1.3163241524823008
1726398294045666800,8.931666748046876,-0.6162210962861776,0.541922226627171,1.372872845917195
1726398294055714800,8.94171484375,-0.6370657313942909,-0.43430400182083245,1.4268755081310867
1726398294065763800,8.951763916015626,-0.5766296751320362,-0.8336360589817166,1.9549261535331606
1726398294075811800,8.961811767578125,-0.6592752251148224,-0.6691631435312331,2.7103134361863135
1726398294085860900,8.97186083984375,-0.32815234243571756,-0.19085202300585805,3.0679061003789303
1726398294095908900,8.981908935546874,0.3665712126791477,0.13271806967351585,3.261501796069741
1726398294105958000,8.9919580078125,0.8466478085070848,0.27332473717238753,3.213276402083039
1726398294116006000,9.002005859375,0.48929450602829455,0.5577676286758855,3.056110448645055
1726398294126054700,9.0120546875,0.5213952791661024,0.49165546300597485,2.227868942183256
1726398294136104000,9.02210400390625,0.5844190138339996,0.15224452572199515,1.168327447797358
1726398294146151700,9.032151611328125,0.047429275172948836,0.0005190006391145289,0.7765732785448431
1726398294156201000,9.042200927734376,0.29199264929592605,-0.1925380398640409,0.8425900575488805
1726398294166248700,9.052248779296875,1.1459966657847165,-0.13562383758500218,0.9758628019630908
1726398294176298000,9.062298095703126,0.5399859978675842,0.30860848772786553,0.6005693536460399
1726398294186345700,9.072345703125,0.12438508908152579,0.7802498481657355,0.6628095367208123
1726398294196395000,9.08239501953125,0.448036028444767,0.5434736938528716,1.1174342959061265
1726398294206442800,9.09244287109375,0.5210422279447317,-0.02372289395816624,0.9606026889890432
1726398294216492000,9.102491943359375,0.05052548762261867,-0.5091056333702058,0.9608718613192438
1726398294226540800,9.112540771484374,-1.042432246413827,-1.2235620629590005,1.0954732239887117
1726398294236589000,9.122589111328125,-1.6353168907761573,-1.6957330732941627,0.08597235631793737
1726398294246637800,9.132637939453126,-1.9167203415185212,-1.8480340510442852,-0.2117348712325096
1726398294256686000,9.14268603515625,-1.8752929371088742,-1.6370245714768767,1.0594722285419702
1726398294266734800,9.15273486328125,-1.3989946907758712,-0.6336439402520656,2.0339672492831946
1726398294276782800,9.162782958984375,-0.6399234589129686,0.3378767408534884,2.4940488125696776
1726398294286831900,9.172831787109375,-1.603341789844632,0.44329570204988117,2.795037546008825
1726398294296879900,9.1828798828125,-2.292705863752961,0.021551175942271947,2.4301927187308667
1726398294306929000,9.192928955078125,-1.486131706959009,-0.651891398473829,0.499750725851953
1726398294316978000,9.20297802734375,-1.4340215804934502,-1.4057345204249023,-0.7223103579595684
1726398294327026000,9.21302587890625,-0.6024409927368164,-2.18390354372859,-1.3669354186922311
1726398294337074700,9.22307470703125,-1.471360838806629,-2.3952030922837553,0.07519815658628941
1726398294347123000,9.233123046875,-1.5357938557505606,-1.966936032539606,1.39222709633708
1726398294357171700,9.243171630859376,-0.9466577502667903,-1.1264097756527363,1.6945906252607703
1726398294367220000,9.253219970703125,-0.6074766488164663,-0.48774727658629413,1.7169781058967113
1726398294377268700,9.263268798828125,-1.360430274581909,-0.6996016825452447,1.7783812536254524
1726398294387318000,9.273318115234375,-2.881971148574352,-1.6147887742713092,1.6507614204064012
1726398294397365800,9.28336572265625,-4.115312920334935,-2.66598855676949,0.9815411398604512
1726398294407415000,9.2934150390625,-4.894388829350471,-3.5643636299043893,0.7011167632833123
1726398294417462800,9.303462890625,-4.192864946570992,-4.303565793693066,0.898131035245955
1726398294427511800,9.31351171875,-2.81347336640954,-4.792810030838847,1.1453162823051213
1726398294437559800,9.323559814453125,-1.97108730700016,-4.9294583891659975,1.2939718892902135
1726398294447608800,9.33360888671875,-1.9957032773405312,-4.689168162317574,1.7503911306768656
1726398294457656800,9.34365673828125,-2.353404370343685,-4.574427099893987,2.05219731797874
1726398294467705900,9.353705810546876,-2.054298089650273,-5.7151019861340515,1.7341636339753865
1726398294477755000,9.3637548828125,-1.4613321967452764,-7.3895923649132245,0.5767331355065107
1726398294487803000,9.373802978515625,-0.6812351279884576,-8.584321789684891,-0.8332190026134252
1726398294497852000,9.383851806640624,0.26221651971340176,-9.362752386534213,-1.876723554433882
1726398294507899600,9.393899658203125,0.7157365325272083,-9.661729487890005,-2.4011714991688726
1726398294517949000,9.403948974609374,0.9039461512655019,-9.4727383633852,-2.5435633695840836
1726398294527996700,9.41399658203125,0.8433060968637466,-8.971185848808288,-2.6797014403015376
1726398294538046000,9.4240458984375,0.44390579677224157,-8.393022388237714,-2.874433154284954
1726398294548095000,9.434094970703125,-0.013012041786313057,-7.8515820999085895,-2.9319156214386224
1726398294558143000,9.44414306640625,-0.15477847377955914,-7.521136093577742,-2.7383272322714327
1726398294568191700,9.454191650390625,0.00017886369824409484,-7.543455477413534,-2.4914751626893876
1726398294578240000,9.464239990234375,0.23869828148186206,-7.852516165888309,-2.2958006148979067
1726398294588288800,9.474288818359375,1.0215461102515457,-8.363599894398451,-2.3127318759545683
1726398294598337000,9.4843369140625,1.8938497535407541,-8.510880705899,-2.644779764524102
1726398294608385800,9.4943857421875,2.399136193948984,-8.407043899327515,-3.223927559956908
1726398294618434000,9.50443408203125,2.4033131873726843,-8.131057797458768,-3.703141401475668
1726398294628482800,9.51448291015625,1.9292653503149746,-7.451491479465365,-3.7495039241999386
1726398294638531800,9.52453173828125,1.681580629301071,-6.41082858081162,-3.463282551781833
1726398294648579800,9.534579833984376,1.3981640851706265,-5.338025161531568,-3.1134742578551173
1726398294658628900,9.54462890625,0.7135504206597805,-4.43200103494823,-2.9086154098719357
1726398294668676900,9.5546767578125,-0.27527941490411756,-3.714248486423492,-3.000792758309841
1726398294678726000,9.564725830078125,-0.9862596928149461,-3.2570807647570965,-3.3833684725895523
1726398294688774000,9.57477392578125,-1.489955064639449,-3.08063552583158,-4.2117929344028235
1726398294698823000,9.584822998046874,-2.0221634142428635,-3.1150252866894004,-5.395269143754244
1726398294708871000,9.594870849609375,-2.351360297295451,-3.3199130685061213,-6.416558648896217
1726398294718919700,9.604919677734374,-2.208695455157757,-3.5203301346495746,-6.844916747924685
1726398294728969000,9.614968994140625,-1.8562761019498109,-3.6170489259094,-6.618896746230125
1726398294739016700,9.6250166015625,-1.6701362752228974,-3.6593326548874376,-5.951335338807105
1726398294749066000,9.63506591796875,-1.4165116427659987,-3.552435291701555,-5.126524683576822
1726398294759113700,9.64511376953125,-0.8963543809622526,-3.4805455290108918,-4.483974383291602
1726398294769163000,9.6551630859375,-0.8036322581231594,-3.7096056290537116,-4.516006182846427
1726398294779210800,9.665210693359375,-0.997809845355153,-4.174051232768595,-4.9266900934964415
1726398294789260000,9.675260009765625,-1.1901952884733675,-4.7678047689199445,-5.080777662402391
1726398294799307800,9.685307861328125,-1.1679185747355223,-5.338906620541215,-5.049125802075863
1726398294809356800,9.695356689453124,-0.4361147045046091,-5.631881851133704,-4.6885710732072585
1726398294819405800,9.70540576171875,0.38008009807169435,-5.81078003616929,-3.7607033636063334
1726398294829453800,9.715453857421876,0.9515887769281863,-5.7436342531353235,-2.523924310873449
1726398294839502800,9.7255029296875,1.6804443187475204,-5.438887336206436,-1.4068193930521606
1726398294849550800,9.73555078125,1.4454945761442184,-5.5312868029624225,-0.7207401860333978
1726398294859600000,9.745599853515625,1.0705874967962503,-5.772389222976565,-0.3396289913482964
1726398294869648000,9.75564794921875,1.1091104119360446,-6.013678105473518,-0.4778960369184613
1726398294879697000,9.76569677734375,1.4187404247313737,-6.469539712977409,-0.7708090159296989
1726398294889746000,9.775745849609375,1.8152970258295535,-6.7925558615684505,-0.7501413448236882
1726398294899794000,9.7857939453125,2.2374884189218283,-6.887917100739479,-0.44176440082937474
1726398294909842400,9.795842529296875,2.377927986225486,-6.700576666051149,0.4554626713141799
1726398294919890700,9.805890625,1.9254250414997338,-6.318494580507278,1.4151811248145996
1726398294929939500,9.815939453125,1.0552677625894546,-6.2476458513021464,1.6535419910356401
1726398294939987500,9.825987548828126,-0.0845177735954523,-6.464915560308098,1.545756885229796
1726398294950036500,9.836036376953125,-0.32333354397714137,-6.076383275711536,1.667682013938576
1726398294960084500,9.84608447265625,0.08041735253930091,-5.7334583115577695,1.9978807675100863
1726398294970133500,9.856133544921875,0.5152168827921152,-5.693972688865661,2.173247125157714
1726398294980182500,9.8661826171875,0.925205212393403,-5.7010115014612674,2.1297825158320367
1726398294990230500,9.87623046875,0.9013339229404925,-5.854836620038747,2.1079142367646098
1726398295000279600,9.886279541015625,0.34017011248767376,-5.809695163542032,2.3989855334319174
1726398295010327600,9.89632763671875,-0.11634849762022495,-5.4283215185284615,2.777510072624683
1726398295020376300,9.906376220703125,-0.713810532900691,-4.853356561738252,2.7714515032380818
1726398295030424600,9.916424560546876,-1.6388707838654517,-4.293190530151128,2.6341020109042526
1726398295040473300,9.926473388671875,-2.3436510380923745,-3.9718411457285283,2.5792963617444036
1726398295050521600,9.936521484375,-2.3560458247631786,-3.820103647080064,3.0870766647949814
1726398295060570400,9.9465703125,-1.8947241982877254,-3.757026720920205,4.080504641804099
1726398295070619600,9.95661962890625,-1.3499819458037614,-3.6637162767991422,4.974837746071815
1726398295080667400,9.96666748046875,-0.7935662066608666,-3.4665158346146345,5.489827834370732
1726398295090716700,9.976716552734375,-0.4494827201217413,-3.374272727464139,5.599782831561565
1726398295100764400,9.986764404296874,-0.6633984425246715,-3.2986054920613763,5.528702047166228
1726398295110813700,9.996813720703125,-1.2218459797561168,-3.3631215111136434,5.093612594056129
1726398295120861400,10.006861328125,-1.584781466281414,-3.585093406461179,5.070804549920559
1726398295130910700,10.01691064453125,-1.0235498512893915,-3.865014801952243,5.620797562539577
1726398295140959500,10.02695947265625,0.06315583661496639,-4.204936200375855,5.862896007853746
1726398295151007700,10.0370078125,0.8522855221331119,-4.3528266682073475,5.982224982589483
1726398295161056500,10.047056396484376,1.1893722816526888,-4.354482910981774,6.236601894718408
1726398295171104500,10.0571044921875,2.4800802007108924,-5.441668491357564,8.295240643921494
1726398295181153500,10.067153564453125,1.8998978015333412,-5.458081281498075,8.951573385843634
1726398295191201500,10.077201416015624,4.114885050311685,-3.766336693318188,8.022241448909044
1726398295201250600,10.08725048828125,3.1161136664479967,-1.6977011584967374,7.526301513516903
1726398295211298600,10.097298583984376,-5.380198415872455,0.39410891568511724,5.702347133979201
1726398295221347600,10.10734765625,-4.645156878894567,0.28645868830531834,2.5993004543751477
1726398295231396400,10.117396240234376,-0.18540800532102583,-0.5781190369069575,2.1318016005694864
1726398295241444600,10.127444580078125,0.27869594534933567,-2.797553035961091,5.565481333509087
1726398295251493400,10.137493408203126,-0.43324411750435826,-3.217333568519354,7.633023520135879
1726398295261541600,10.147541748046875,-1.279724168229103,-2.75739258274734,7.280431148448586
1726398295271590400,10.15759033203125,-1.8021628189682959,-1.9667273582249878,6.433938238242268
1726398295281638700,10.167638671875,-1.4752952556461094,-1.420750303249061,5.552420191884041
1726398295291687400,10.1776875,-0.3945657195419073,-1.088985907796025,5.056172213456034
1726398295301735700,10.187735595703124,0.3884802621483803,-0.897634776161611,5.217127330043912
1726398295311784400,10.197784423828125,0.45555356446802614,-0.8469003219634293,5.767620693400501
1726398295321833700,10.207833740234374,0.3554635432094335,-0.8237655300915241,6.1153586107939475
1726398295331881500,10.217881591796875,0.47180151943564413,-0.8069751388102769,5.8124693044304845
1726398295341930800,10.2279306640625,0.6883031666785479,-0.7207935236558318,5.148559989774227
1726398295351978500,10.237978515625,0.7830757923066616,-0.6685249917581677,4.458355373388528
1726398295362027500,10.248027587890626,0.8344090891808271,-0.7509311800271272,3.9940848339796062
1726398295372075500,10.258075439453124,0.7551268781512975,-0.7832567018315195,3.925573023289442
1726398295382124500,10.26812451171875,0.6006874270677566,-0.641771132606268,4.209162001377344
1726398295392173600,10.278173583984374,0.29848493392467496,-0.3270239229276776,4.640660151997208
1726398295402221600,10.2882216796875,-0.1751005463182926,-0.005746142436563968,4.936195588466525
1726398295412270600,10.2982705078125,-0.36533085722923275,0.4309443161293864,5.16608512507081
1726398295422318300,10.308318359375,-0.3884381765723228,0.8101482158884405,5.2080725014507765
1726398295432367600,10.31836767578125,-0.31088615033626554,0.9638044076398015,5.06321102605164
1726398295442415400,10.328415283203125,-0.15633856270313262,1.0411237941637634,4.94927835740149
1726398295452464600,10.338464599609376,0.07335165193676949,1.145455106253922,4.902541448406875
1726398295462512400,10.348512451171874,0.4475555514514446,1.2472855414390562,4.873038290546834
1726398295472561700,10.358561767578125,0.9569412438720464,1.2324626508384942,4.7995773330166935
1726398295482610400,10.3686103515625,1.1874252392381428,1.159733806975186,4.6953716931328175
1726398295492658700,10.37865869140625,1.142163371232152,1.1312570695534347,4.362147161999345
1726398295502707500,10.38870751953125,1.0473533362030982,1.222408874335885,3.8714360671713948
1726398295512755700,10.398755615234375,1.1491080758035181,1.2595892888255416,3.3353461999595164
1726398295522804500,10.408804443359376,1.3259475747436285,0.8644158126488327,2.763979852183163
1726398295532852700,10.418852783203125,1.5648042616575955,0.8804222139455378,2.461664254054427
1726398295542901500,10.428901611328126,1.5525702185064554,0.9349135364592075,2.556188457879424
1726398295552949500,10.438949462890625,1.4156734383761882,1.0622951770082116,2.626640881243348
1726398295562998500,10.44899853515625,1.3469132058829067,1.2441937129035592,2.625083422668278
1726398295573047600,10.459047607421875,1.1167173798084258,1.2910118704408406,2.5711481266021727
1726398295583095600,10.469095458984375,0.9145365188628435,1.2076780459329486,2.341100769087672
1726398295593144600,10.47914453125,0.9951105232685804,1.1503425860345362,1.9901745770469306
1726398295603192600,10.489192626953125,1.174847497215867,1.1254045441329479,1.712448353512585
1726398295613241300,10.499241455078124,1.3346142808020114,0.9538067452386021,1.5373589131101966
1726398295623289600,10.50928955078125,1.5809411574661731,0.7852157269448041,1.365376206551492
1726398295633338400,10.51933837890625,1.8517051407724618,0.6845864842429756,1.3003782492011784
1726398295643387600,10.5293876953125,1.7740917397379874,0.5937272326663137,1.4036360868409274
1726398295653435400,10.539435302734375,1.539648193091154,0.7089753678292036,1.5224140035651623
1726398295663484700,10.549484619140625,1.117073353639245,1.0066223896250128,1.556517494827509
1726398295673532400,10.559532470703125,0.3246089707404375,1.3004559906125068,1.5891747328042982
1726398295683581700,10.569581787109374,-0.2517921563327312,1.5144149676352738,1.479814340505749
1726398295693629400,10.57962939453125,-0.4016062857031822,1.6217539371088145,1.256467503543198
1726398295703678700,10.5896787109375,-0.1503618263810873,1.5687427701503038,1.0383719381723553
1726398295713726500,10.5997265625,0.22860826462209224,1.252739422930777,0.979794003932178
1726398295723775700,10.609775634765626,0.37648528845012186,0.8822267791494727,0.9840791339054703
1726398295733824500,10.619824462890625,0.40621699436902997,0.6729632664665579,0.9898208193626254
1726398295743872800,10.629872802734376,0.5295581273555755,0.7262175945311784,0.9176897221967577
1726398295753921500,10.639921630859375,0.8314806345134973,1.0615990114375948,0.6960969623599201
1726398295763969500,10.649969482421875,0.9153080877572297,1.314594406080246,0.5007617295254022
1726398295774018600,10.6600185546875,0.5756383260071277,1.2744658093094825,0.3764065241254866
1726398295784066600,10.670066650390625,0.3336696445524692,1.1071502177789807,0.2116868673723191
1726398295794115600,10.680115478515624,0.6194704534709453,0.9064329996451735,-0.032416707219183445
1726398295804163300,10.690163330078125,1.188228956836462,0.7186831073731184,-0.15741342539303005
1726398295814212600,10.700212646484376,1.4143793069124222,0.5669187207177281,-0.04128536559045314
1726398295824261400,10.710261474609375,1.0038520481288433,0.41278818945288653,-0.023739260571077465
1726398295834309600,10.7203095703125,0.4832856210023164,0.37416298298239703,-0.2231845590729266
1726398295844358400,10.7303583984375,0.09249825095534324,0.4760165067821741,-0.46986675198078154
1726398295854406700,10.74040673828125,-0.03092880674898624,0.5603010561436415,-0.6568458060108124
1726398295864455400,10.750455322265625,0.03405366077125072,0.5191887090325356,-0.6410450102888048
1726398295874503700,10.760503662109375,0.1832745004236698,0.36285306893885133,-0.4873121731046587
1726398295884552400,10.770552490234374,0.1860159080862999,0.3675035250931978,-0.4048264167934656
1726398295894600700,10.7806005859375,-0.04037000431120395,0.5536655636519193,-0.4609965592395514
1726398295904649200,10.790649169921876,-0.23209844482541084,0.7705144168972968,-0.7067658020209521
1726398295914698200,10.8006982421875,-0.3937105640172958,0.9491565813452005,-0.9820131412863731
1726398295924746200,10.810746337890626,-0.41570729176998134,1.0078840801239013,-1.0960700208380818
1726398295934795300,10.820795166015625,-0.3604237959653139,0.9248159208148717,-1.153928481697291
1726398295944843000,10.830843017578125,-0.3483808914721012,0.9272615604013204,-1.1665187909401953
1726398295954892000,10.84089208984375,-0.4966109665215015,1.021624436184764,-1.1503434628173708
1726398295964940000,10.85093994140625,-0.4015969333529472,1.0409756178647278,-1.100697826769203
1726398295974989000,10.860989013671874,-0.1945323920190334,0.9616396308213472,-0.974871672033891
1726398295985038000,10.8710380859375,-0.1056108305066824,0.7880944972515106,-0.8743024158909917
1726398295995086000,10.881086181640624,-0.2839747625350952,0.630692689231038,-0.8809257795535027
1726398296005135000,10.891135009765625,-0.38411855980753895,0.48277065721750256,-0.9550884556122123
1726398296015183000,10.90118310546875,-0.30825463278889653,0.30030747317671774,-0.9402523402038961
1726398296025232100,10.911232177734375,-0.2613485047072172,0.16068097582161425,-0.6914239290475845
1726398296035280100,10.921280029296875,-0.5164215824067593,0.1547925023049116,-0.4342390833584591
1726398296045329200,10.9313291015625,-0.8353981002181768,0.1963204444795847,-0.35170963403601196
1726398296055377200,10.941377197265625,-1.0297785165458917,0.2330506309837103,-0.34579043658748265
1726398296065426200,10.95142626953125,-1.2813269272506236,0.216157948371768,-0.4524722207939252
1726398296075475200,10.96147509765625,-1.334428402841091,0.10247370152473449,-0.62756038255468
1726398296085523200,10.971523193359374,-1.1274655683159827,-0.09767769941985606,-0.7190218378081917
1726398296095572200,10.981572265625,-0.9186644124478102,-0.2340080778390169,-0.6685771603368222
1726398296105620200,10.9916201171875,-0.7462538358658551,-0.27505262041091916,-0.5739504825180396
1726398296115669200,11.001669189453125,-0.7905541653633117,-0.25889292824864385,-0.37493751101884987
1726398296125717200,11.01171728515625,-1.2028572016477583,-0.10775777940750121,-0.19912859723549334
1726398296135766300,11.021766357421875,-1.7730115432858466,0.05748948141634464,-0.17493929134197533
1726398296145814300,11.031814208984375,-2.1358792252719403,0.08630348796844482,-0.375914868151024
1726398296155863000,11.041863037109374,-1.8522949233591555,-0.06692366471588611,-0.6035619961233809
1726398296165912000,11.051912109375,-1.2441723778545857,-0.3133054864376783,-0.6366976287342607
1726398296175960000,11.0619599609375,-0.7105828030258416,-0.6078349607348442,-0.5765570117546245
1726398296186009000,11.072009033203125,-0.3235100695878267,-0.738454560291767,-0.3804138600707054
1726398296196057000,11.08205712890625,-0.33419103807806966,-0.641716772070527,-0.12024294777549803
1726398296206106000,11.092106201171875,-0.6058873337984084,-0.4337199183225631,0.07022055083680898
1726398296216154000,11.102154052734376,-0.936630277249217,-0.21972879259586334,0.224092358100228
1726398296226203100,11.112203125,-1.2373375633984804,-0.14943419014215467,0.24360680405050514
1726398296236251100,11.122251220703125,-1.3640063795030115,-0.29320144056379793,0.14597517226208
1726398296246300200,11.132300048828125,-1.2694734078496694,-0.6063754095762968,-0.05160407663956284
1726398296256349200,11.14234912109375,-1.0569546927630902,-0.8461749302983284,-0.24925255485251543
1726398296266397200,11.152397216796874,-0.7112064878821373,-0.9807289466947317,-0.34543460888713595
1726398296276446200,11.1624462890625,-0.3071598232895136,-1.172094399115443,-0.460441921031475
1726398296286494200,11.172494140625,0.08118073812723159,-1.5155536162763834,-0.5157832845032215
1726398296296543200,11.182543212890625,-0.8257464747756719,-1.206865852767229,-0.5371118306707591
1726398296306591200,11.19259130859375,-2.098072349447012,-0.4947995331853628,-0.5504042968336492
1726398296316640300,11.20264013671875,-2.1702537885606286,-0.12253683086633682,-0.5447657794900238
1726398296326689300,11.212689208984376,-1.7609411662638186,-0.24275018722116945,-0.33364319493696093
1726398296336737300,11.2227373046875,-1.1936755318045615,-0.5631313111335039,-0.08297405128479003
1726398296346786300,11.232786376953126,-0.5928700313150882,-0.8062567614078521,0.1581483886040747
1726398296356834000,11.242833984375,-0.8600421276092529,-0.5822685578018426,0.0644460225559771
1726398296366883300,11.25288330078125,-1.3177245207995176,-0.6071721129119396,-0.2187321097087115
1726398296376931000,11.26293115234375,-1.4489561147749423,-0.7930413060039282,-0.6337932125296444
1726398296386980000,11.27297998046875,-1.3672802866071463,-1.0204162294387817,-0.9100585697311907
1726398296397028000,11.283028076171876,-1.271145140454173,-1.1536340287953615,-1.0343526925936342
1726398296407077000,11.2930771484375,-1.1538374424129725,-1.1576584620058537,-1.0524616191275418
1726398296417126100,11.303126220703126,-0.9855202726244926,-1.1430442457199097,-1.0277810591183603
1726398296427174100,11.313174072265625,-0.8178951767534017,-0.9932716174036264,-0.8703595234841108
1726398296437223200,11.32322314453125,-0.6816846253216267,-0.7289987496823072,-0.5813615990247577
1726398296447271200,11.333271240234374,-0.6954097838133573,-0.4285848935216665,-0.24999270569533108
1726398296457320200,11.3433203125,-0.8193564814776182,-0.24467560232579708,-0.007754413519054651
1726398296467368200,11.3533681640625,-0.9002911358892917,-0.21703122407495976,0.16841558866165576
1726398296477417200,11.363417236328125,-0.9504735091626644,-0.2712532281279564,0.25634083261303603
1726398296487465200,11.37346533203125,-0.9863508782297372,-0.2808767965197563,0.22913506497517228
1726398296497514200,11.38351416015625,-1.0848165131568908,-0.19060615848600862,0.24299188702255486
1726398296507563000,11.39356298828125,-1.2564146043121813,-0.0958180430278182,0.32586788476034995
1726398296517611300,11.403611328125,-1.3454104001045226,-0.045861295203864574,0.33257973042391237
1726398296527660000,11.413659912109376,-1.2595458880752324,-0.022957389478385447,0.3126511141821742
1726398296537708000,11.4237080078125,-1.0057423919200896,-0.1042377885878086,0.26674941390268503
1726398296547757000,11.433757080078125,-0.7134937220364809,-0.24545067835152148,0.24387254231460392
1726398296557805000,11.44380517578125,-0.6100690033972263,-0.3292643953308463,0.21009623718000947
1726398296567854000,11.45385400390625,-0.6600134762614965,-0.333228038264811,0.181003486751765
1726398296577902000,11.463902099609374,-0.7958937728255987,-0.2836222958356142,0.20858276387713848
1726398296587951000,11.473951171875,-0.937376127180457,-0.2765346756622195,0.21907259370945392
1726398296598000000,11.484000244140624,-0.9955348861604928,-0.3131432816132903,0.20636764511093497
1726398296608048000,11.494048095703125,-1.0149503652483225,-0.3367348773419857,0.18003318041488528
1726398296618097200,11.50409716796875,-0.9811159001857042,-0.3849228619277477,0.09135076142065227
1726398296628145200,11.514145263671875,-0.9501245495945214,-0.3738052555859089,-0.0038461540341377257
1726398296638194200,11.524194091796875,-0.9103513421326875,-0.3755471308171749,-0.041183001194521784
1726398296648242200,11.5342421875,-0.9057809654772281,-0.38307898762673137,-0.06280768076442182
1726398296658291200,11.544291259765625,-0.9274106134831904,-0.33826661695390936,-0.004797244213894009
1726398296668340200,11.55434033203125,-0.9531424361109733,-0.20624942555874584,0.1409408678893
1726398296678388200,11.56438818359375,-0.995107600659132,-0.10446399855911731,0.3225528419282287
1726398296688437200,11.574437255859374,-1.0168623363494873,-0.022777941258251666,0.47068135629929597
1726398296698485200,11.5844853515625,-0.9627753568530082,0.031793022362887856,0.5697670228209346
1726398296708534300,11.5945341796875,-0.7810165216892957,0.036491409312188625,0.5662441824570298
1726398296718582300,11.604582275390625,-0.5537924049019813,-0.023877426932752133,0.48823798271268604
1726398296728631300,11.61463134765625,-0.3568640576571226,-0.12390022817403078,0.3503037492934614
1726398296738679300,11.62467919921875,-0.2509001759290695,-0.17507511961609123,0.3437316774267703
1726398296748728300,11.634728271484375,-0.1462093828767538,-0.11729425403773784,0.4959795367501676
1726398296758777000,11.644777099609374,-0.03419979124367237,-0.020872984419763086,0.6353971405949443
1726398296768825000,11.6548251953125,-0.06797054342031479,0.07473550751060247,0.6551610677942633
1726398296778874000,11.6648740234375,-0.07890519441068172,0.022047288896143435,0.5483353085398673
1726398296788922000,11.674922119140625,-0.00023380875587463378,-0.15136895759701727,0.33250871101431545
1726398296798971100,11.68497119140625,0.11377777034938334,-0.2932797664970159,0.09251849002577364
1726398296809019100,11.69501904296875,0.39825755979716776,-0.3653668053254485,-0.119370621920377
1726398296819068200,11.705068115234376,0.674033818307519,-0.4035045205399394,-0.19207805766947567
1726398296829116200,11.7151162109375,0.7690764930486679,-0.3441062828928232,-0.09450338023267686
1726398296839165200,11.725165283203125,0.8527005326747894,-0.20646774448454377,0.20152049734070895
1726398296849214000,11.7352138671875,0.8382043898105621,-0.0855547154277563,0.430324869056791
1726398296859262200,11.74526220703125,0.7139239301472902,-0.03404226259440184,0.5817683531947434
1726398296869311000,11.75531103515625,0.7713204725831747,-0.04651683650314808,0.6595753771051764
1726398296879359200,11.765359130859375,0.9768944830983877,-0.058252574743330475,0.6490194232340901
1726398296889408000,11.775407958984376,1.2438427075088023,-0.03311959479153156,0.5332306053232402
1726398296899456300,11.785456298828125,1.4292051201224327,-0.02489478728175163,0.4725662932630628
1726398296909505300,11.79550537109375,1.451022984176874,-0.09130085786432027,0.4344502053584903
1726398296919554600,11.805554443359375,1.4282277995228767,-0.19440993468314408,0.312590396970883
1726398296929602300,11.815602294921876,1.3812339931577444,-0.29477468122988937,0.26241343052498994
1726398296939651600,11.825651611328125,1.2674047848820686,-0.40050504646301266,0.27101898098066446
1726398296949699300,11.83569921875,1.1597545575022696,-0.4361640966042876,0.230259246699512
1726398296959748600,11.84574853515625,1.1305559355467558,-0.3726517016366124,0.21056144353896378
1726398296969796400,11.85579638671875,1.3019424297779798,-0.30921617129743095,0.1524363676328212
1726398296979845600,11.865845703125,1.4369944588243961,-0.338088337777555,0.10828479895628988
1726398296989893400,11.875893310546875,1.4825912578731775,-0.4203150778263807,0.1306363314960152
1726398296999942400,11.8859423828125,1.4316408228367565,-0.4696633383631706,0.17333784749470652
1726398297009991400,11.895991455078125,1.3152987549573183,-0.40960576002448795,0.1419557440202683
1726398297020039400,11.906039306640626,1.1589403185099363,-0.2623030289530754,0.07480060863606632
1726398297030088400,11.91608837890625,1.058642791980505,-0.12566665332466362,0.022422478884086012
1726398297040136400,11.926136474609375,0.9301128581792115,-0.0876812060624361,-0.05181735406406224
1726398297050185500,11.936185546875,0.823956084227562,-0.1376736097216606,-0.08584916832968592
1726398297060233500,11.9462333984375,0.793793001154065,-0.1371679982870817,-0.10802373686730861
1726398297070282500,11.956282470703124,0.7001964335680008,-0.12868775471150876,-0.07493475640974938
1726398297080330500,11.96633056640625,0.6388233887165784,-0.17272241901010274,-0.06980090065263211
1726398297090379500,11.976379638671874,0.7209644963085651,-0.25227000297755003,-0.06371332436725496
1726398297100428300,11.98642822265625,0.7618553096234798,-0.3162204971015453,-0.10159231558032333
1726398297110476500,11.9964765625,0.6687135000675917,-0.2604842890933156,-0.19181524201482533
1726398297120525300,12.006525390625,0.48873278049230573,-0.12371581151783466,-0.21036409433595835
1726398297130573600,12.016573486328125,0.4015466644704342,0.008378244505822658,-0.16032383294701574
1726398297140622300,12.026622314453125,0.4086480209082365,0.12665654114484787,-0.11115830856598913
1726398297150670600,12.036670654296875,0.4364677557259798,0.20384002632945775,-0.030103461840748785
1726398297160719400,12.04671923828125,0.4013742305129766,0.2152574924007058,0.04353950119279325
1726398297170768400,12.056768310546875,0.3903472250640392,0.1877253423526883,0.11245938122719526
1726398297180816400,12.06681640625,0.3167956666409969,0.1325698568418622,0.1135452037025243
1726398297190865400,12.076865478515625,0.2225052715718746,0.10065379262119531,0.0788747262071818
1726398297200913400,12.086913330078126,0.12823708833456038,0.10518792891949415,-0.05616429722718894
1726398297210962200,12.096962158203125,0.14203355849683283,0.09057721976488828,-0.14614508546888827
1726398297221010400,12.107010498046876,0.19922376470565795,0.03439794416427612,-0.17377908845618367
1726398297231059200,12.11705908203125,0.2471054598212242,0.03438713050931692,-0.14723383055366576
1726398297241107500,12.127107421875,0.3404144426375627,0.024764438900351522,-0.11669146583899855
1726398297251156200,12.13715625,0.45057343796789645,0.04887596684992313,-0.028972704245150086
1726398297261205500,12.14720556640625,0.5431646279036998,0.0655713733240962,0.0019199352119117974
1726398297271253200,12.157253173828124,0.5490811584711075,0.08625789526104927,0.005876052426546811
1726398297281302500,12.167302490234375,0.4517629400134086,0.13977525817602873,-0.022219576723128555
1726398297291350300,12.177350341796876,0.3111749041497707,0.1984241387605667,-0.07553396441191434
1726398297301399600,12.187399658203125,0.16108838757872582,0.207623636521399,-0.08331029750183225
1726398297311447300,12.197447265625,0.08793839569389819,0.1778352319791913,-0.06304492358639836
1726398297321496600,12.20749658203125,0.16342764418125152,0.11155541812479496,-0.04876059684194624
1726398297331544300,12.21754443359375,0.39286826797425745,-0.0007639701098203659,-0.0867016935057938
1726398297341593600,12.227593505859375,0.6440168657064438,-0.08196312067657709,-0.13068360470384358
1726398297351642400,12.237642333984375,0.6728390555649996,-0.07624561981260776,-0.11385573095642029
1726398297361690600,12.247690673828124,0.5395908610701561,0.007834639148414134,-0.07572634517885744
1726398297371739400,12.257739501953125,0.30673429135382174,0.10974252348393201,-0.03990348277799785
1726398297381787400,12.267787353515626,0.1210737725764513,0.20525193895399568,-0.0752663264516741
1726398297391836400,12.27783642578125,0.027057518273591992,0.23252251545637845,-0.10721790037713945
1726398297401884400,12.287884521484376,-0.0427729737997055,0.12143003866821526,-0.11895298103019594
1726398297411933400,12.297933349609375,-0.08965981265902519,-0.016047171698510648,-0.14888189002163707
1726398297421982500,12.307982421875,0.0030126258194446563,-0.09351648808717727,-0.15899397258274256
1726398297432030500,12.318030517578125,0.10741992575526237,-0.07895750911980867,-0.07729395982176065
1726398297442079200,12.328079345703125,0.14882161120176315,-0.02978168254047632,0.014348478021845221
1726398297452127500,12.33812744140625,0.1841460225611925,0.05946136601120233,0.13086297985874115
1726398297462176300,12.34817626953125,0.1782294919937849,0.11636311066746712,0.21982282755486665
1726398297472224500,12.358224609375,0.1808697773694992,0.1250122810691595,0.24264782282523809
1726398297482273300,12.368273193359375,0.2277951946735382,0.07183101824074983,0.1876908555611968
1726398297492321500,12.378321533203126,0.31223464233577247,-0.06520370905548334,0.0793769035756588
1726398297502370300,12.388370361328125,0.35885844634473324,-0.21880554027110338,-0.04154211683049798
1726398297512419600,12.398419677734376,0.24592647916972635,-0.31188480598479507,-0.11464856183454393
1726398297522467300,12.40846728515625,0.08946049069464206,-0.2827063500344753,-0.14213351173996924
1726398297532516400,12.418516357421876,-0.08333060963749885,-0.2221656643539667,-0.14452800566107032
1726398297542564400,12.428564453125,-0.28782851535379883,-0.13238777827322482,-0.18777312701717017
1726398297552613400,12.43861328125,-0.7122218024045228,-0.0051005380094051355,-0.28505189024731514
1726398297562661400,12.448661376953124,-1.2350567589849233,0.3403773254975676,-0.5148506798282265
1726398297572710400,12.45871044921875,0.05335106643736362,0.3213195738062262,0.04659750052392483
1726398297582758400,12.46875830078125,0.055872693869471544,0.30981267588585615,0.0226958159327507
1726398297592807200,12.47880712890625,0.23504735775887964,0.26091186685562134,0.36409444730207324
1726398297602856400,12.4888564453125,-0.21615970193743705,0.30477322041392324,0.43243660051375626
1726398297612904200,12.498904296875,-0.6832610808581113,0.22334698309302328,0.15006182052120565
1726398297622953500,12.508953369140626,-0.6200321790069341,0.07688333319425582,-0.015611118368804454
1726398297633001200,12.519001220703124,-0.27985855938792226,-0.020889643293619156,-0.07129983397349715
1726398297643050500,12.529050537109375,0.062059858071804044,-0.07467500949501991,-0.1435961316384375
1726398297653098200,12.53909814453125,0.38957448712587356,-0.14563245977163314,-0.23414017978608606
1726398297663147500,12.5491474609375,0.6263257261931896,-0.2476449735254049,-0.2894350737676024
1726398297673196300,12.5591962890625,0.7174567804485559,-0.28859833068251606,-0.274526477644965
1726398297683244500,12.56924462890625,0.7389478967666625,-0.272199569067359,-0.20298180206492542
1726398297693293300,12.579293212890626,0.6114420453161001,-0.17106208458244798,-0.15741700558960436
1726398297703341600,12.589341552734375,0.43132805474996566,-0.07090718139410018,-0.11876629935167729
1726398297713390300,12.599390380859376,0.30705051769614217,-0.015364742392301558,-0.01371726744621992
1726398297723438600,12.6094384765625,0.21320903543829917,-0.02108545812666416,0.1122774487890303
1726398297733487400,12.6194873046875,0.08378653671145439,-0.0474830511868,0.09969736867919564
